"Time (s)";"Linear Acceleration x (m/s^2)";"Linear Acceleration y (m/s^2)";"Linear Acceleration z (m/s^2)"
3.434727000E-3;-8.073109984E-1;5.050799847E-1;-8.296160102E-1
8.226956000E-3;-8.073109984E-1;5.050799847E-1;-8.296160102E-1
1.301904000E-2;-8.073109984E-1;5.050799847E-1;-8.296160102E-1
1.781126800E-2;-8.073109984E-1;5.050799847E-1;-8.296160102E-1
2.260334700E-2;-8.073109984E-1;5.050799847E-1;-8.296160102E-1
2.739556600E-2;-8.073109984E-1;5.050799847E-1;-8.296160102E-1
3.218764500E-2;-8.073109984E-1;5.050799847E-1;-8.296160102E-1
3.697987400E-2;-8.073109984E-1;5.050799847E-1;-8.296160102E-1
4.177197700E-2;-8.073109984E-1;5.050799847E-1;-8.296160102E-1
4.656420600E-2;-8.073109984E-1;5.050799847E-1;-8.296160102E-1
5.135628500E-2;-8.073109984E-1;5.050799847E-1;-8.296160102E-1
5.614857600E-2;-8.073109984E-1;5.050799847E-1;-8.296160102E-1
6.094080900E-2;-8.073109984E-1;5.050799847E-1;-8.296160102E-1
6.573288600E-2;-8.073109984E-1;5.050799847E-1;-8.296160102E-1
7.052513500E-2;-8.073109984E-1;5.050799847E-1;-8.296160102E-1
7.531721400E-2;-8.073109984E-1;5.050799847E-1;-8.296160102E-1
8.010944200E-2;-8.073109984E-1;5.050799847E-1;-8.296160102E-1
8.490153000E-2;-8.073109984E-1;5.050799847E-1;-8.296160102E-1
8.969375900E-2;2.112780064E-1;-1.115489975E-1;-1.889500022E-2
9.448583900E-2;3.141140044E-1;-4.875800014E-2;2.110300064E-1
9.927806800E-2;2.474520057E-1;-6.877899915E-2;4.317249954E-1
1.040703760E-1;-1.128109992E-1;-3.763329983E-1;5.783489943E-1
1.088624500E-1;4.737260044E-1;-1.693660021E-1;8.570330143E-1
1.136546780E-1;6.255310178E-1;4.414200038E-2;1.141021967E0
1.184467570E-1;6.302149892E-1;8.956900239E-2;1.245923996E0
1.232389760E-1;6.793569922E-1;1.127109975E-1;1.341763020E0
1.280310550E-1;8.345360160E-1;9.910199791E-2;1.313583970E0
1.328232980E-1;1.018957973E0;1.585520059E-1;1.151854038E0
1.376153770E-1;1.051601052E0;1.381780058E-1;9.163990021E-1
1.424076050E-1;9.714360237E-1;3.853800148E-2;5.880020261E-1
1.471996990E-1;9.984139800E-1;8.212699741E-2;2.887830138E-1
1.519919280E-1;9.511709809E-1;2.256149948E-1;1.880400069E-2
1.567840070E-1;8.519039750E-1;3.901070058E-1;-2.745949924E-1
1.615763030E-1;7.462720275E-1;5.306119919E-1;-5.771219730E-1
1.663685360E-1;5.842610002E-1;6.904590130E-1;-8.433120251E-1
1.711605990E-1;4.300679862E-1;8.914340138E-1;-1.082784057E0
1.759528270E-1;2.570059896E-1;1.195485950E0;-1.367326021E0
1.807449060E-1;1.100089997E-1;1.409517050E0;-1.701874971E0
1.855371440E-1;-7.485800236E-2;1.400732040E0;-2.089019060E0
1.903292230E-1;-2.255280018E-1;1.504291058E0;-2.356359005E0
1.951214520E-1;-2.824569941E-1;1.607903957E0;-2.614078999E0
1.999135170E-1;-3.675149977E-1;1.675922036E0;-2.909972906E0
2.047057450E-1;-5.884619951E-1;1.795874000E0;-3.064877987E0
2.094978230E-1;-8.088740110E-1;1.862583995E0;-3.086014986E0
2.142900520E-1;-9.835569859E-1;1.945487976E0;-3.047617912E0
2.190821310E-1;-1.174934983E0;1.972851038E0;-2.978441954E0
2.238744370E-1;-1.399144053E0;2.020004988E0;-2.859057903E0
2.286666700E-1;-1.520125031E0;2.023684978E0;-2.718471050E0
2.334587470E-1;-1.626642942E0;1.881603003E0;-2.564001083E0
2.382509850E-1;-1.690153003E0;1.901515007E0;-2.388267994E0
2.430429870E-1;-1.682279944E0;1.844122052E0;-2.172161102E0
2.478352830E-1;-1.703713059E0;1.845468044E0;-1.968276978E0
2.526273620E-1;-1.806748033E0;1.776327968E0;-1.757464051E0
2.574195910E-1;-1.941264033E0;1.770167947E0;-1.589892983E0
2.622116800E-1;-1.983219028E0;1.759731054E0;-1.460755944E0
2.670039080E-1;-2.018541098E0;1.701851964E0;-1.358054042E0
2.717959870E-1;-2.040079117E0;1.627571940E0;-1.241073966E0
2.765882210E-1;-2.064476967E0;1.617678046E0;-1.179134011E0
2.813803000E-1;-2.067817926E0;1.578724980E0;-1.129122019E0
2.861725340E-1;-2.040421963E0;1.579854012E0;-1.071825027E0
2.909646130E-1;-2.006223917E0;1.563639045E0;-1.000072002E0
2.957569180E-1;-1.984264016E0;1.560984015E0;-9.928230047E-1
3.005489060E-1;-1.969653010E0;1.526479006E0;-1.023759007E0
3.053412110E-1;-1.907655954E0;1.558078051E0;-1.030596972E0
3.101332130E-1;-1.886440992E0;1.533990979E0;-1.070845962E0
3.149255190E-1;-1.822126031E0;1.578364015E0;-1.103731036E0
3.197177500E-1;-1.774657965E0;1.605319023E0;-1.131705046E0
3.245098440E-1;-1.722679973E0;1.631790042E0;-1.094952941E0
3.293020720E-1;-1.644987941E0;1.681679010E0;-1.053336024E0
3.340941510E-1;-1.610806942E0;1.688058972E0;-1.097849011E0
3.388863650E-1;-1.569530010E0;1.653527975E0;-1.132745028E0
3.436784440E-1;-1.559406042E0;1.688096046E0;-1.134057999E0
3.484706730E-1;-1.518484950E0;1.672399044E0;-1.121013045E0
3.532627380E-1;-1.482769966E0;1.699730039E0;-1.112753034E0
3.580549670E-1;-1.395109057E0;1.669991016E0;-1.106987953E0
3.628470600E-1;-1.336518049E0;1.599987030E0;-1.089339972E0
3.676392880E-1;-1.209128022E0;1.566305995E0;-1.055027962E0
3.724313670E-1;-1.110890031E0;1.511731982E0;-1.004094958E0
3.772236100E-1;-1.041818023E0;1.467314959E0;-9.748309851E-1
3.820156890E-1;-9.754300117E-1;1.416401029E0;-9.361259937E-1
3.868079180E-1;-9.046130180E-1;1.347319007E0;-8.329769969E-1
3.916000020E-1;-8.104220033E-1;1.267312050E0;-6.486350298E-1
3.963923070E-1;-6.908299923E-1;1.217123032E0;-4.525600076E-1
4.011845550E-1;-5.126510262E-1;1.179770947E0;-3.189370036E-1
4.059766320E-1;-3.785679936E-1;1.143169999E0;-2.285780013E-1
4.107686320E-1;-2.453240007E-1;1.109642982E0;-1.407600045E-1
4.155609280E-1;-1.081420034E-1;1.129102945E0;-7.216600329E-2
4.203531590E-1;-3.364500031E-2;1.189345002E0;-3.586000064E-3
4.251452520E-1;-7.129000034E-3;1.240041018E0;7.936400175E-2
4.299374810E-1;-1.603700034E-2;1.290573955E0;1.408270001E-1
4.347295640E-1;-1.731899939E-2;1.321843982E0;2.262769938E-1
4.395217930E-1;-5.880099908E-2;1.400725961E0;3.788439929E-1
4.443138720E-1;-1.023119986E-1;1.424307942E0;5.218979716E-1
4.491060870E-1;-2.074970007E-1;1.423604965E0;6.363049746E-1
4.538981660E-1;-1.786330044E-1;1.546555996E0;7.939820290E-1
4.586903940E-1;-2.761279941E-1;1.615833998E0;9.231359959E-1
4.634824730E-1;-2.802450061E-1;1.752941966E0;1.052602053E0
4.682747020E-1;-3.488390148E-1;1.861994982E0;1.175227046E0
4.730667610E-1;-3.886510134E-1;1.844962001E0;1.250275016E0
4.778589900E-1;-4.044849873E-1;1.861843944E0;1.323325992E0
4.826512980E-1;-3.964959979E-1;1.905189991E0;1.396824002E0
4.874432950E-1;-4.101209939E-1;1.953255057E0;1.370257020E0
4.922356000E-1;-4.141570032E-1;2.013127089E0;1.262809992E0
4.970276120E-1;-4.203799963E-1;2.044289112E0;1.170225978E0
5.018196890E-1;-3.881309927E-1;2.149374008E0;1.047096968E0
5.066119180E-1;-3.701030016E-1;2.247014046E0;8.599060178E-1
5.114039970E-1;-4.447140098E-1;2.301635981E0;7.163500190E-1
5.161962260E-1;-5.661219954E-1;2.339704037E0;5.805130005E-1
5.209885330E-1;-6.552709937E-1;2.334846020E0;3.279120028E-1
5.257805200E-1;-7.571049929E-1;2.423795938E0;3.751229942E-1
5.305728260E-1;-8.847339749E-1;2.548998117E0;3.414840102E-1
5.353649050E-1;-8.994809985E-1;2.612241030E0;1.815309972E-1
5.401571340E-1;-9.781799912E-1;2.659176111E0;-1.645960063E-1
5.449491360E-1;-1.118000031E0;2.850605011E0;-2.612060010E-1
5.497414570E-1;-1.195139050E0;3.057421923E0;-5.153520107E-1
5.545335350E-1;-1.252580047E0;3.232446909E0;-6.997259855E-1
5.593257640E-1;-1.359526992E0;3.302182913E0;-1.001248002E0
5.641178380E-1;-1.253417969E0;3.449431896E0;-1.063380957E0
5.689100670E-1;-1.213871956E0;3.597894907E0;-1.233386040E0
5.737021550E-1;-1.535820007E0;3.312509060E0;-9.613710046E-1
5.784943840E-1;-1.708691001E0;2.924169064E0;-8.412989974E-1
5.832864630E-1;-1.805070996E0;2.660188913E0;-8.133280277E-1
5.880786860E-1;-1.875138998E0;2.570897102E0;-5.830159783E-1
5.928707650E-1;-1.611852050E0;2.787206888E0;-2.507599890E-1
5.976629940E-1;-1.550143957E0;2.666050911E0;1.089349985E-1
6.024550690E-1;-1.584133983E0;2.301621914E0;5.533080101E-1
6.072472980E-1;-1.597108006E0;1.901918054E0;1.060873032E0
6.120393770E-1;-1.621255040E0;1.527341008E0;1.508682966E0
6.168316060E-1;-1.612416029E0;1.099877954E0;1.826627970E0
6.216236850E-1;-1.611166954E0;7.435190082E-1;2.333297968E0
6.264159080E-1;-1.472030997E0;3.641580045E-1;2.789454937E0
6.312079870E-1;-1.207442999E0;-2.936100028E-2;3.066000938E0
6.360002160E-1;-8.987050056E-1;-4.090900123E-1;3.352297068E0
6.407922950E-1;-5.127419829E-1;-8.165699840E-1;3.342087984E0
6.455845240E-1;-1.091910005E-1;-1.249343991E0;3.100007057E0
6.503766030E-1;2.746590078E-1;-1.642714024E0;2.879837990E0
6.551688310E-1;6.944059730E-1;-2.030308962E0;2.710331917E0
6.599609100E-1;1.121086955E0;-2.424210072E0;2.457442999E0
6.647531390E-1;1.601523042E0;-2.714973927E0;1.900447011E0
6.695452180E-1;1.828408957E0;-2.769876957E0;1.975911021E0
6.743374470E-1;2.178426027E0;-2.943028927E0;1.587188005E0
6.791295410E-1;2.549022913E0;-3.121927023E0;1.165261030E0
6.839217700E-1;2.773170948E0;-3.222918987E0;4.970690012E-1
6.887138490E-1;2.788399935E0;-3.103231907E0;7.272650003E-1
6.935060770E-1;3.077141047E0;-2.964160919E0;2.972559929E-1
6.982981560E-1;3.178653002E0;-2.820372105E0;-2.063049972E-1
7.030903850E-1;3.091943026E0;-2.616851091E0;-7.283700109E-1
7.078824640E-1;2.970943928E0;-2.341758013E0;-1.312026978E0
7.126746930E-1;2.664114952E0;-1.928372979E0;-1.095312953E0
7.174667910E-1;2.572149038E0;-1.592118979E0;-1.660761952E0
7.222590960E-1;2.268579006E0;-1.201436043E0;-2.038723946E0
7.270510980E-1;1.973358035E0;-8.527780175E-1;-2.387404919E0
7.318433270E-1;1.793817997E0;-5.708860159E-1;-2.642785072E0
7.366354060E-1;1.641363978E0;-2.237630039E-1;-2.816907883E0
7.414276540E-1;1.431987047E0;5.967799947E-2;-2.960149050E0
7.462197330E-1;1.208585024E0;3.540489972E-1;-3.106122017E0
7.510119620E-1;9.950659871E-1;6.357859969E-1;-3.137609005E0
7.558040360E-1;8.775330186E-1;8.501260281E-1;-3.069052935E0
7.605963410E-1;7.434149981E-1;1.021054983E0;-2.960328102E0
7.653885740E-1;6.763820052E-1;1.179999948E0;-2.821083069E0
7.701806510E-1;6.314749718E-1;1.231302023E0;-2.624829054E0
7.749728800E-1;6.077960134E-1;1.216243029E0;-2.446099997E0
7.797649350E-1;5.365250111E-1;1.337743998E0;-2.184214115E0
7.845569350E-1;5.601900220E-1;1.333142996E0;-1.880020976E0
7.893491630E-1;4.635629952E-1;1.262508988E0;-1.591043949E0
7.941412470E-1;3.902190030E-1;1.185330987E0;-1.286054969E0
7.989334760E-1;3.662689924E-1;1.148947001E0;-9.744769931E-1
8.037255600E-1;3.128600121E-1;1.090852022E0;-7.113109827E-1
8.085177890E-1;3.257130086E-1;1.005988002E0;-4.629560113E-1
8.133098680E-1;3.260880113E-1;8.512549996E-1;-2.437780052E-1
8.181021740E-1;3.165549934E-1;7.005479932E-1;-2.495500073E-2
8.228944060E-1;3.283259869E-1;6.036480069E-1;2.319449931E-1
8.276864830E-1;3.351550102E-1;5.240579844E-1;4.217250049E-1
8.324787160E-1;2.943660021E-1;4.063909948E-1;6.090930104E-1
8.372707950E-1;1.633089930E-1;3.100830019E-1;8.300420046E-1
8.420627810E-1;2.080100030E-2;2.464379966E-1;1.046434045E0
8.468550100E-1;-1.165279970E-1;1.457760036E-1;1.210433960E0
8.516470890E-1;-1.272190064E-1;-1.387500018E-2;1.006121993E0
8.564393170E-1;-2.590419948E-1;9.250299633E-2;1.439174056E0
8.612313960E-1;-2.247000039E-1;1.223950014E-1;1.465813994E0
8.660236250E-1;-4.345700145E-2;-6.266900152E-2;1.279891968E0
8.708157040E-1;5.785200000E-2;-1.852499992E-1;9.652379751E-1
8.756079330E-1;1.853699982E-1;-3.004499972E-1;2.991549969E-1
8.804000120E-1;8.029100299E-2;-2.140869945E-1;7.276160121E-1
8.851922260E-1;2.400290072E-1;-2.687669992E-1;3.521600068E-1
8.899845330E-1;3.071050048E-1;-3.683269918E-1;1.590490043E-1
8.947765350E-1;3.108330071E-1;-4.384540021E-1;-3.612599894E-2
8.995686020E-1;3.728759885E-1;-4.386160076E-1;-1.734469980E-1
9.043608310E-1;3.638759851E-1;-3.930059969E-1;-5.090389848E-1
9.091531440E-1;2.439090014E-1;-3.180510104E-1;-6.144440174E-1
9.139451460E-1;1.844920069E-1;-2.352340072E-1;-8.248280287E-1
9.187372230E-1;1.377169937E-1;-1.731519997E-1;-1.252743006E0
9.235294360E-1;3.975300118E-2;-1.716399938E-2;-1.735353947E0
9.283215150E-1;-1.753669977E-1;2.027540058E-1;-1.509212017E0
9.331137440E-1;-2.299499959E-1;3.189600110E-1;-1.677924037E0
9.379058280E-1;-2.126259953E-1;4.223760068E-1;-2.023597002E0
9.426980570E-1;-2.452819943E-1;4.807350039E-1;-2.574040890E0
9.474901220E-1;-3.445189893E-1;6.490939856E-1;-2.218389988E0
9.522823510E-1;-2.441859990E-1;7.865669727E-1;-2.369643927E0
9.570744300E-1;-1.940069944E-1;8.774880171E-1;-2.664881945E0
9.618666580E-1;-2.818039954E-1;9.723209739E-1;-2.850404978E0
9.666589660E-1;-3.134050071E-1;1.097558975E0;-2.820909977E0
9.714509680E-1;-3.036499918E-1;1.203125000E0;-2.753607035E0
9.762430350E-1;-3.342959881E-1;1.315261960E0;-2.643663883E0
9.810352640E-1;-4.631229937E-1;1.461490989E0;-2.512453079E0
9.858273520E-1;-5.262680054E-1;1.520779014E0;-2.281132936E0
9.906195800E-1;-5.388680100E-1;1.619711995E0;-2.007051945E0
9.954116590E-1;-5.016019940E-1;1.633759022E0;-1.785938025E0
1.000203884E0;-5.648109913E-1;1.779489040E0;-1.698897004E0
1.004995963E0;-5.894250274E-1;1.805925012E0;-1.592810988E0
1.009788192E0;-6.139479876E-1;1.849632978E0;-1.388684988E0
1.014580256E0;-5.839819908E-1;1.857877016E0;-1.198997021E0
1.019372485E0;-5.715289712E-1;1.830615997E0;-9.638779759E-1
1.024164574E0;-4.858779907E-1;1.781821966E0;-8.436340094E-1
1.028956802E0;-3.627980053E-1;1.754179955E0;-7.160639763E-1
1.033748866E0;-2.357269973E-1;1.670920968E0;-6.649259925E-1
1.038541095E0;-9.027799964E-2;1.594280958E0;-6.303700209E-1
1.043333174E0;3.324100003E-2;1.538501978E0;-5.501220226E-1
1.048125403E0;1.493169963E-1;1.474784017E0;-4.912120104E-1
1.052917482E0;2.341540009E-1;1.453161955E0;-4.607659876E-1
1.057709710E0;3.140819967E-1;1.404271960E0;-4.827409983E-1
1.062501799E0;3.486360013E-1;1.380831003E0;-4.805400074E-1
1.067294028E0;3.952110112E-1;1.339872956E0;-5.379920006E-1
1.072086030E0;4.228860140E-1;1.276852012E0;-5.761510134E-1
1.076878105E0;4.484989941E-1;1.211058974E0;-5.759050250E-1
1.081670336E0;4.099499881E-1;1.161602020E0;-5.587930083E-1
1.086462425E0;4.360690117E-1;1.092839956E0;-5.631740093E-1
1.091254654E0;4.713990092E-1;9.882339835E-1;-5.986639857E-1
1.096046733E0;5.824450254E-1;9.004700184E-1;-7.179309726E-1
1.100838956E0;7.430620193E-1;8.033909798E-1;-8.228539824E-1
1.105631264E0;8.627910018E-1;7.377930284E-1;-9.158819914E-1
1.110423252E0;8.682600260E-1;7.037050128E-1;-9.611409903E-1
1.115215558E0;8.387219906E-1;6.654800177E-1;-9.539260268E-1
1.120007637E0;7.980859876E-1;6.876099706E-1;-9.396870136E-1
1.124799860E0;7.131909728E-1;7.604339719E-1;-9.016529918E-1
1.129591862E0;6.176699996E-1;7.980239987E-1;-8.063809872E-1
1.134383937E0;4.829579890E-1;8.505240083E-1;-6.897510290E-1
1.139176173E0;3.138779998E-1;8.821750283E-1;-5.374400020E-1
1.143968252E0;1.939329952E-1;9.452760220E-1;-4.283410013E-1
1.148760471E0;7.033800334E-2;1.039605975E0;-3.408389986E-1
1.153552550E0;-1.308030039E-1;1.112717032E0;-2.127459943E-1
1.158344779E0;-2.853679955E-1;1.171815038E0;-8.236499876E-2
1.163136858E0;-4.672560096E-1;1.252686977E0;1.532900035E-1
1.167929086E0;-5.379970074E-1;1.263808012E0;5.384299904E-2
1.172721165E0;-7.741050124E-1;1.430446982E0;4.907320142E-1
1.177513404E0;-9.048529863E-1;1.604210019E0;9.707829952E-1
1.182305483E0;-8.478810191E-1;1.693233013E0;9.603419900E-1
1.187097712E0;-9.180849791E-1;1.843440056E0;9.382820129E-1
1.191889791E0;-1.052266002E0;1.978343964E0;9.213079810E-1
1.196682019E0;-1.116500020E0;2.184206963E0;1.062646031E0
1.201474098E0;-1.189926028E0;2.388962030E0;1.190374017E0
1.206266327E0;-1.266191959E0;2.447323084E0;1.200906038E0
1.211058406E0;-1.347329974E0;2.661326885E0;1.343147993E0
1.215850630E0;-1.333220959E0;2.803661108E0;1.535653949E0
1.220642709E0;-1.387295961E0;2.919893980E0;1.486294031E0
1.225434923E0;-1.516230941E0;3.026959896E0;1.487120032E0
1.230226925E0;-1.454442024E0;3.144471884E0;1.609823942E0
1.235019225E0;-1.398579001E0;3.155255079E0;1.775349021E0
1.239811227E0;-1.277356029E0;3.083220005E0;1.950178981E0
1.244603533E0;-1.071866989E0;3.016951084E0;2.124736071E0
1.249395612E0;-8.560199738E-1;2.822287083E0;2.246364117E0
1.254187841E0;-6.005340219E-1;2.599864960E0;2.456304073E0
1.258979843E0;-3.436770141E-1;2.383044958E0;2.742624998E0
1.263771904E0;-1.286669970E-1;2.193032980E0;2.985717058E0
1.268564135E0;4.692199826E-2;1.945821047E0;3.204790115E0
1.273356199E0;2.262160033E-1;1.662639976E0;3.421483994E0
1.278148428E0;4.068270028E-1;1.410238981E0;3.554481030E0
1.282940507E0;5.725389719E-1;1.214609027E0;3.737953901E0
1.287732720E0;6.517069936E-1;9.605100155E-1;3.876224995E0
1.292524799E0;7.712519765E-1;7.314590216E-1;4.022046089E0
1.297317028E0;8.332269788E-1;5.055710077E-1;4.120443821E0
1.302109107E0;7.583860159E-1;1.748050004E-1;4.188269138E0
1.306901335E0;1.013023973E0;1.411949992E-1;4.211215973E0
1.311693409E0;1.027966022E0;1.674070060E-1;4.129509926E0
1.316485638E0;1.000398993E0;1.335739940E-1;3.919265985E0
1.321277717E0;6.939079762E-1;-6.326100230E-2;3.714570999E0
1.326069946E0;3.828830123E-1;-3.440090120E-1;3.398092031E0
1.330862025E0;2.315489948E-1;-4.186950028E-1;3.041593075E0
1.335654025E0;4.357400164E-2;-4.355080128E-1;2.642623901E0
1.340446240E0;-1.112210006E-1;-4.792929888E-1;2.094727039E0
1.345238547E0;-3.207379878E-1;-5.009409785E-1;1.688671947E0
1.350030539E0;-4.209870100E-1;-6.648659706E-1;1.302121997E0
1.354822616E0;-5.288879871E-1;-7.583060265E-1;5.401319861E-1
1.359614845E0;-8.431760073E-1;-5.478749871E-1;-3.574860096E-1
1.364406895E0;-1.000622034E0;-5.768200159E-1;-1.960299909E-2
1.369199124E0;-1.027920961E0;-7.450150251E-1;-6.105110049E-1
1.373991203E0;-1.114560008E0;-7.165300250E-1;-1.849553943E0
1.378783417E0;-1.213646054E0;-6.825879812E-1;-1.661741018E0
1.383575496E0;-1.193132997E0;-8.184649944E-1;-1.943140984E0
1.388367715E0;-1.142341971E0;-1.025334001E0;-2.452179909E0
1.393159794E0;-1.156203032E0;-1.125545025E0;-2.714951992E0
1.397952023E0;-1.105376005E0;-1.200284958E0;-3.148150921E0
1.402744102E0;-1.134860039E0;-1.192047954E0;-3.790121078E0
1.407536331E0;-1.280709028E0;-1.183920026E0;-3.147077084E0
1.412328409E0;-1.214594960E0;-1.341223001E0;-3.764103889E0
1.417120438E0;-1.348886967E0;-1.287932992E0;-3.869501114E0
1.421912744E0;-1.465746045E0;-1.193946004E0;-3.887103081E0
1.426704746E0;-1.479256988E0;-1.212450027E0;-3.816931009E0
1.431496975E0;-1.511623979E0;-1.257172942E0;-3.699724913E0
1.436289054E0;-1.562934995E0;-1.323421955E0;-3.557005882E0
1.441081283E0;-1.585379958E0;-1.337175012E0;-3.419831991E0
1.445873362E0;-1.705747008E0;-1.286615014E0;-3.288151026E0
1.450665585E0;-1.782780051E0;-1.191074967E0;-3.078109026E0
1.455457664E0;-1.811941028E0;-1.139178038E0;-2.935734034E0
1.460249893E0;-1.853049040E0;-1.037598014E0;-2.880162954E0
1.465041972E0;-1.939216018E0;-8.813520074E-1;-2.822875977E0
1.469834201E0;-1.915294051E0;-9.050239921E-1;-2.194041967E0
1.474626203E0;-1.775460958E0;-9.092389941E-1;-1.968498945E0
1.479418509E0;-1.742205024E0;-7.928119898E-1;-1.834211946E0
1.484210511E0;-1.816503048E0;-6.969889998E-1;-1.630784988E0
1.489002587E0;-1.728070974E0;-7.032089829E-1;-1.442002058E0
1.493794816E0;-1.623056054E0;-7.087759972E-1;-1.157632947E0
1.498586895E0;-1.522956014E0;-7.282329798E-1;-1.026618958E0
1.503379124E0;-1.408602953E0;-6.972399950E-1;-7.304229736E-1
1.508171218E0;-1.220484018E0;-7.405179739E-1;-6.592289805E-1
1.512963447E0;-1.163719058E0;-7.456309795E-1;-4.993770123E-1
1.517755526E0;-1.109145999E0;-7.061259747E-1;-4.469540119E-1
1.522547753E0;-1.104843020E0;-6.887009740E-1;-3.296889961E-1
1.527339832E0;-1.103250027E0;-6.217340231E-1;-1.953990012E-1
1.532132061E0;-1.011894941E0;-4.794099927E-1;-8.460800350E-2
1.536924155E0;-8.550469875E-1;-5.915809870E-1;-1.531230062E-1
1.541716384E0;-6.839029789E-1;-5.800099969E-1;2.192080021E-1
1.546508463E0;-4.998680055E-1;-5.266039968E-1;6.527700275E-2
1.551300697E0;-2.635399997E-1;-4.653230011E-1;-1.503050029E-1
1.556092776E0;-4.377600178E-2;-4.603340030E-1;-3.079819977E-1
1.560884776E0;5.967300013E-2;-3.823460042E-1;-4.029760063E-1
1.565677004E0;1.164230034E-1;-3.413810134E-1;-6.579930186E-1
1.570469083E0;2.297880054E-1;-3.059549928E-1;-7.451279759E-1
1.575261312E0;2.255419940E-1;-2.521249950E-1;-8.774859905E-1
1.580053405E0;2.404090017E-1;-1.875019968E-1;-1.165081978E0
1.584845634E0;2.534070015E-1;-1.190709993E-1;-1.306310058E0
1.589637713E0;2.738530040E-1;-5.616199970E-2;-1.406591058E0
1.594429955E0;3.229199946E-1;1.278999960E-3;-1.576071024E0
1.599222034E0;3.697830141E-1;1.152700037E-1;-1.733278990E0
1.604014263E0;4.194700122E-1;1.498890072E-1;-1.914307952E0
1.608806342E0;3.579359949E-1;1.701299995E-1;-2.076203108E0
1.613598571E0;2.097979933E-1;2.646149993E-1;-2.111268997E0
1.618390650E0;5.630699918E-2;3.711040020E-1;-2.067392111E0
1.623182879E0;-2.932499908E-2;4.278819859E-1;-2.004558086E0
1.627974881E0;-2.026380002E-1;5.065850019E-1;-1.972995043E0
1.632766956E0;-3.318650126E-1;5.976139903E-1;-1.788347006E0
1.637559162E0;-3.937189877E-1;6.266880035E-1;-1.649289012E0
1.642351241E0;-4.460209906E-1;7.101870179E-1;-1.811707020E0
1.647143470E0;-4.472300112E-1;7.362689972E-1;-1.818541050E0
1.651935554E0;-5.770469904E-1;8.690509796E-1;-1.038099051E0
1.656727783E0;-3.885940015E-1;8.550689816E-1;-1.140807986E0
1.661519862E0;-2.897390127E-1;7.352970243E-1;-1.468387961E0
1.666312090E0;-2.670359910E-1;7.330060005E-1;-1.408156991E0
1.671104169E0;-1.674830019E-1;7.845550179E-1;-1.855141044E0
1.675896398E0;-1.693760008E-1;8.786290288E-1;-9.044939876E-1
1.680688491E0;3.923099861E-2;8.861320019E-1;-1.031018972E0
1.685480720E0;9.358400106E-2;8.404129744E-1;-1.360828996E0
1.690272722E0;1.157639995E-1;8.676139712E-1;-1.939303041E0
1.695064797E0;6.217699870E-2;1.004374027E0;-1.043622971E0
1.699857028E0;2.520770133E-1;1.033745050E0;-8.519300222E-1
1.704649107E0;2.515319884E-1;1.005630970E0;-8.205689788E-1
1.709441335E0;3.047710061E-1;9.438440204E-1;-1.090764046E0
1.714233414E0;1.634829938E-1;1.085165024E0;-1.104740977E0
1.719025643E0;1.775860041E-1;1.206375003E0;-1.377122998E0
1.723817722E0;1.194790006E-1;1.322352052E0;-3.716709912E-1
1.728609951E0;2.128839940E-1;1.311265945E0;-5.392659903E-1
1.733402030E0;1.200810000E-1;1.235787988E0;-4.938809872E-1
1.738194016E0;1.505999942E-3;1.244364977E0;-3.240990043E-1
1.742986244E0;-9.711399674E-2;1.243548989E0;-9.456499666E-2
1.747778323E0;-1.830389947E-1;1.254601955E0;1.277759969E-1
1.752570566E0;-2.117400020E-1;1.267910004E0;3.669329882E-1
1.757362645E0;-1.527789980E-1;1.233214021E0;5.750610232E-1
1.762154874E0;-9.492500126E-2;1.169569016E0;7.258599997E-1
1.766946910E0;-3.803599998E-2;1.038797975E0;8.408309817E-1
1.771739139E0;4.201399907E-2;9.316959977E-1;8.936889768E-1
1.776531218E0;1.547189951E-1;8.100100160E-1;9.466689825E-1
1.781323456E0;2.667709887E-1;5.688850284E-1;1.069049001E0
1.786115535E0;2.663410008E-1;4.921939969E-1;1.162938952E0
1.790907535E0;3.991540074E-1;3.149940073E-1;1.331092000E0
1.795699764E0;5.000240207E-1;1.355150044E-1;1.432234049E0
1.800491843E0;5.930690169E-1;1.362000010E-3;1.511929989E0
1.805284072E0;6.068620086E-1;-8.766999841E-2;1.577404976E0
1.810076146E0;4.442369938E-1;-2.694199979E-2;1.643167973E0
1.814868375E0;2.993049920E-1;-1.462489963E-1;1.790420055E0
1.819660453E0;-3.819900006E-2;1.042000018E-2;1.978832960E0
1.824452667E0;-6.712620258E-1;3.935160041E-1;2.161200047E0
1.829244669E0;-8.419529796E-1;4.284780025E-1;1.860041976E0
1.834036744E0;-8.389970064E-1;4.691439867E-1;2.294660091E0
1.838828985E0;-8.467590213E-1;6.448510289E-1;2.447304964E0
1.843621293E0;-9.727249742E-1;6.774500012E-1;2.624567032E0
1.848413295E0;-9.152529836E-1;6.481329799E-1;2.505688906E0
1.853205357E0;-9.040820003E-1;7.699450254E-1;1.927883983E0
1.857997585E0;-1.153300047E0;1.005566955E0;1.472934008E0
1.862789664E0;-1.071012020E0;1.296432018E0;1.143177032E0
1.867581888E0;-7.565749884E-1;1.340226054E0;1.203907967E0
1.872373967E0;-6.173570156E-1;1.438159943E0;7.670419812E-1
1.877166196E0;-7.803500295E-1;1.664638042E0;5.793460011E-1
1.881958256E0;-6.748459935E-1;1.702672958E0;4.632959962E-1
1.886750485E0;-4.640510082E-1;1.698915005E0;3.899829984E-1
1.891542487E0;-3.339650035E-1;1.713328958E0;3.114059865E-1
1.896334807E0;-3.545959890E-1;1.692968011E0;7.425899804E-2
1.901126809E0;-3.037230074E-1;1.639521003E0;3.412100077E-1
1.905918886E0;-2.976509929E-1;1.601567984E0;7.218440175E-1
1.910711105E0;-3.370470107E-1;1.504814982E0;1.029471040E0
1.915503184E0;-4.604960084E-1;1.328073978E0;1.338199973E0
1.920295413E0;-5.868120193E-1;1.224161029E0;1.585930943E0
1.925087482E0;-6.086140275E-1;1.081632972E0;1.779698014E0
1.929879710E0;-6.231880188E-1;7.805060148E-1;2.001559019E0
1.934671789E0;-5.275009871E-1;4.305160046E-1;2.251648903E0
1.939464023E0;-3.076629937E-1;2.188600041E-2;2.611489058E0
1.944256025E0;-1.534049958E-1;-2.042530030E-1;2.949682951E0
1.949048100E0;4.025999922E-3;-2.845219970E-1;3.288084984E0
1.953840331E0;2.792010009E-1;-5.066930056E-1;3.327595949E0
1.958632410E0;5.632410049E-1;-8.426870108E-1;3.226366043E0
1.963424639E0;7.642710209E-1;-1.314437985E0;2.574959993E0
1.968216722E0;4.678440094E-1;-1.186699986E0;3.003632069E0
1.973008951E0;3.538750112E-1;-9.902930260E-1;3.413372040E0
1.977800953E0;-2.676469982E-1;-1.306655049E0;3.380518913E0
1.982593013E0;-1.417300012E-2;-1.579607010E0;3.474792957E0
1.987385244E0;7.130140066E-1;-1.240337014E0;4.517941952E0
1.992177323E0;1.288936019E0;-1.186568022E0;4.130850792E0
1.996969571E0;1.486718059E0;-1.191437960E0;3.232882977E0
2.001761650E0;1.718374014E0;-1.149320960E0;2.680861950E0
2.006553878E0;2.169574022E0;-1.130462050E0;1.855456948E0
2.011345948E0;1.890789032E0;-1.229452014E0;1.214990020E0
2.016137948E0;2.072154045E0;-1.340931058E0;4.460180104E-1
2.020930177E0;2.466517925E0;-1.413856030E0;3.436600044E-2
2.025722256E0;2.464004993E0;-1.514600992E0;-4.201200008E-1
2.030514485E0;2.235897064E0;-1.392179012E0;-9.530910254E-1
2.035306564E0;2.089945078E0;-1.087664962E0;-1.353579998E0
2.040098797E0;2.095415115E0;-1.024008036E0;-1.830165982E0
2.044890876E0;2.168952942E0;-1.099223971E0;-2.088907003E0
2.049683104E0;2.247088909E0;-1.221806049E0;-2.390840054E0
2.054475198E0;2.215054989E0;-1.309697986E0;-2.583807945E0
2.059267198E0;2.138422012E0;-1.279314041E0;-2.698157072E0
2.064059427E0;2.086451054E0;-1.295730948E0;-2.829696894E0
2.068851720E0;1.989786983E0;-1.291847944E0;-2.942555904E0
2.073643722E0;1.772228003E0;-1.178966999E0;-3.005696058E0
2.078435799E0;1.371477008E0;-9.090279937E-1;-3.083837986E0
2.083228042E0;9.859219790E-1;-5.964660048E-1;-3.093338013E0
2.088020121E0;7.585070133E-1;-3.487089872E-1;-3.137198925E0
2.092812350E0;5.477970243E-1;-1.010209993E-1;-3.153196096E0
2.097604429E0;3.561390042E-1;1.203730032E-1;-3.103068113E0
2.102396658E0;2.263599932E-1;3.275609910E-1;-3.037120104E0
2.107188660E0;1.078379974E-1;4.465529919E-1;-2.962594032E0
2.111980754E0;2.443699911E-2;5.084400177E-1;-2.946511984E0
2.116772985E0;-3.545099869E-2;5.371429920E-1;-2.912292957E0
2.121565064E0;-7.182099670E-2;5.520150065E-1;-2.749875069E0
2.126357278E0;-5.989000201E-3;5.052139759E-1;-2.538244963E0
2.131149357E0;1.976300031E-2;3.786250055E-1;-2.294056892E0
2.135941357E0;6.107800081E-2;2.703000009E-1;-1.972239017E0
2.140733687E0;8.887699991E-2;1.460749954E-1;-1.759245992E0
2.145525689E0;6.097399816E-2;1.264030039E-1;-1.647343993E0
2.150317918E0;7.121499628E-2;-6.573999673E-2;-1.435719013E0
2.155110006E0;1.329330057E-1;-1.554359943E-1;-1.198318958E0
2.159902234E0;2.265380025E-1;-2.605440021E-1;-1.090505958E0
2.164694313E0;3.047100008E-1;-4.052740037E-1;-9.997010231E-1
2.169486537E0;3.416349888E-1;-4.897300005E-1;-9.209100008E-1
2.174278539E0;3.711310029E-1;-5.096910000E-1;-8.204370141E-1
2.179070845E0;3.836280107E-1;-5.014259815E-1;-7.484260201E-1
2.183862924E0;3.484280109E-1;-4.914740026E-1;-6.186640263E-1
2.188654924E0;2.991940081E-1;-4.658179879E-1;-5.172389746E-1
2.193447153E0;2.573519945E-1;-4.606800079E-1;-4.416379929E-1
2.198239227E0;2.372310013E-1;-5.213909745E-1;-3.416450024E-1
2.203031455E0;3.385759890E-1;-4.930230081E-1;-3.797410131E-1
2.207823534E0;3.180379868E-1;-4.024119973E-1;-4.313490093E-1
2.212615534E0;2.213650048E-1;-2.690240145E-1;-5.849819779E-1
2.217407763E0;1.966889948E-1;-1.858530045E-1;-7.856870294E-1
2.222199842E0;3.561359942E-1;-9.302300215E-2;-1.019067049E0
2.226992067E0;4.109260142E-1;1.671000011E-2;-1.292426944E0
2.231784146E0;3.834869862E-1;1.534689963E-1;-1.409726024E0
2.236576375E0;3.332119882E-1;3.128260076E-1;-1.483574986E0
2.241368448E0;3.121730089E-1;4.020049870E-1;-1.528484941E0
2.246160448E0;2.462060004E-1;4.861130118E-1;-1.525472045E0
2.250952677E0;1.282529980E-1;5.198969841E-1;-1.541671991E0
2.255744756E0;1.181510016E-1;5.181980133E-1;-1.536486030E0
2.260536985E0;1.107079983E-1;5.050569773E-1;-1.459686041E0
2.265329064E0;1.985400021E-1;4.522190094E-1;-1.285025001E0
2.270121297E0;3.615950048E-1;3.165459931E-1;-1.287727952E0
2.274913376E0;4.998100102E-1;2.055500001E-1;-1.312142015E0
2.279705604E0;5.852130055E-1;9.522199631E-2;-1.322414041E0
2.284497669E0;6.921370029E-1;4.266500100E-2;-1.347152948E0
2.289289669E0;7.445110083E-1;7.637400180E-2;-1.271414995E0
2.294081898E0;7.472040057E-1;1.075000018E-1;-1.195673943E0
2.298873982E0;7.573680282E-1;9.312400222E-2;-1.139114976E0
2.303666211E0;7.273520231E-1;1.144220009E-1;-1.049008012E0
2.308458290E0;6.642209888E-1;2.139260024E-1;-1.040063977E0
2.313250271E0;5.990179777E-1;3.580529988E-1;-1.026062012E0
2.318042500E0;4.675999880E-1;4.678770006E-1;-9.639890194E-1
2.322834578E0;4.038209915E-1;6.721379757E-1;-9.110850096E-1
2.327626821E0;3.692570031E-1;8.656380177E-1;-7.955639958E-1
2.332418900E0;3.226859868E-1;9.769719839E-1;-7.396249771E-1
2.337211129E0;3.159900010E-1;1.068480968E0;-7.264580131E-1
2.342003203E0;2.183739990E-1;1.211629033E0;-7.416579723E-1
2.346795432E0;1.641030014E-1;1.356230974E0;-7.182379961E-1
2.351587511E0;2.173520029E-1;1.397166014E0;-7.711539865E-1
2.356379739E0;1.609620005E-1;1.554582000E0;-7.495920062E-1
2.361171741E0;7.638499886E-2;1.747182965E0;-7.062720060E-1
2.365963816E0;-7.786000147E-3;1.827046037E0;-6.581199765E-1
2.370756033E0;-9.406399727E-2;1.868494987E0;-6.147350073E-1
2.375548112E0;-1.395840049E-1;1.866842031E0;-6.048650146E-1
2.380340112E0;-2.611039877E-1;1.872413039E0;-5.567529798E-1
2.385132341E0;-3.007130027E-1;1.830013037E0;-5.206210017E-1
2.389924420E0;-3.045290112E-1;1.742885947E0;-3.530530035E-1
2.394716649E0;-3.350650072E-1;1.665964007E0;-1.976370066E-1
2.399508728E0;-2.611910105E-1;1.491832972E0;2.217599936E-2
2.404300728E0;-1.289380044E-1;1.189633012E0;2.249400020E-1
2.409093033E0;5.200299993E-2;8.975939751E-1;2.863920033E-1
2.413885264E0;2.269760072E-1;6.229410172E-1;4.435060024E-1
2.418677343E0;4.962140024E-1;3.056640029E-1;5.000360012E-1
2.423469343E0;7.811509967E-1;-1.609900035E-2;5.134649873E-1
2.428261586E0;9.227259755E-1;-2.400439978E-1;5.006589890E-1
2.433053665E0;1.007778049E0;-3.309360147E-1;6.150389910E-1
2.437845893E0;1.123859048E0;-4.964109957E-1;7.223799825E-1
2.442638001E0;1.180228949E0;-5.902709961E-1;8.585199714E-1
2.447430001E0;1.201460004E0;-6.775619984E-1;1.004389048E0
2.452222230E0;1.185441971E0;-7.155500054E-1;1.112211943E0
2.457014314E0;1.220428944E0;-7.617409825E-1;1.158095002E0
2.461806543E0;1.168362975E0;-7.330080271E-1;1.182912946E0
2.466598622E0;9.986230135E-1;-4.817230105E-1;1.316228032E0
2.471390851E0;8.733779788E-1;-3.805649877E-1;1.500337005E0
2.476182930E0;7.558419704E-1;-1.997440010E-1;1.689870000E0
2.480974930E0;6.190199852E-1;7.235699892E-2;1.662371039E0
2.485767235E0;4.159820080E-1;3.614900112E-1;1.633252978E0
2.490559237E0;2.759549916E-1;6.130710244E-1;1.566439033E0
2.495351466E0;7.768000010E-3;9.613059759E-1;1.435524940E0
2.500143540E0;-2.876420021E-1;1.358693957E0;1.360054970E0
2.504935769E0;-5.976740122E-1;1.814735055E0;1.220298052E0
2.509727771E0;-7.879920006E-1;2.155229092E0;1.059118986E0
2.514519865E0;-9.345300198E-1;2.363749027E0;1.209087968E0
2.519312095E0;-1.051938057E0;2.449510098E0;1.250640035E0
2.524104174E0;-1.212697983E0;2.554327011E0;1.449368000E0
2.528896403E0;-1.300124049E0;2.486921072E0;1.556193948E0
2.533688482E0;-1.316663980E0;2.386324883E0;1.647662997E0
2.538480711E0;-1.322021008E0;2.271756887E0;1.836248994E0
2.543272718E0;-1.170212030E0;2.016289949E0;2.004642010E0
2.548064793E0;-1.024018049E0;1.653313041E0;2.315701962E0
2.552857024E0;-9.434670210E-1;1.376047015E0;2.563813925E0
2.557649107E0;-7.040690184E-1;1.107926965E0;2.749006987E0
2.562441335E0;-4.965440035E-1;7.385169864E-1;2.947949886E0
2.567233337E0;-2.726550102E-1;3.054240048E-1;3.211184025E0
2.572025417E0;-3.230199963E-2;-1.085100025E-1;3.491205931E0
2.576817648E0;4.010799900E-2;-4.872789979E-1;3.682979107E0
2.581609727E0;1.506849974E-1;-7.546460032E-1;3.822551012E0
2.586401956E0;2.396630049E-1;-8.964610100E-1;3.945918083E0
2.591193958E0;2.899810076E-1;-1.017810941E0;3.997922897E0
2.595986033E0;3.589639962E-1;-1.140113950E0;4.038381100E0
2.600778254E0;4.013620019E-1;-1.380828977E0;3.684247017E0
2.605570332E0;4.496859908E-1;-1.706697941E0;3.821410894E0
2.610362561E0;3.565909863E-1;-1.780540943E0;4.392672062E0
2.615154645E0;2.845459878E-1;-1.870533943E0;4.203492165E0
2.619946874E0;3.992229998E-1;-2.126915932E0;3.447525978E0
2.624738876E0;4.880099893E-1;-2.660625935E0;3.020366907E0
2.629530951E0;5.380380154E-1;-2.921466112E0;2.625271082E0
2.634323182E0;5.831369758E-1;-3.004966021E0;1.807312965E0
2.639115261E0;4.720489979E-1;-3.125875950E0;1.696146965E0
2.643907489E0;2.990669906E-1;-3.116430044E0;1.669304013E0
2.648699491E0;1.591019928E-1;-3.103682995E0;1.415657997E0
2.653491566E0;6.873700023E-2;-2.863249063E0;1.024088979E0
2.658283797E0;-9.775699675E-2;-2.654025078E0;2.863470018E-1
2.663075876E0;-5.576649904E-1;-2.287727118E0;-1.629209965E-1
2.667868105E0;-9.763020277E-1;-1.879076004E0;-6.110569835E-1
2.672660170E0;-1.276041031E0;-1.430237055E0;-9.670540094E-1
2.677452170E0;-1.647611022E0;-9.486309886E-1;-1.424772978E0
2.682244399E0;-2.104723930E0;-5.055260062E-1;-1.701931953E0
2.687036473E0;-2.447592974E0;-7.177799940E-2;-2.093080997E0
2.691828701E0;-2.728687048E0;2.293249965E-1;-2.361692905E0
2.696620780E0;-2.831577063E0;3.559490144E-1;-2.501061916E0
2.701413013E0;-2.805468082E0;4.213840067E-1;-2.607213974E0
2.706205015E0;-2.744035006E0;4.890519977E-1;-3.027810097E0
2.710997321E0;-2.632419109E0;5.114889741E-1;-3.032931089E0
2.715789352E0;-2.499703884E0;5.027269721E-1;-2.691716909E0
2.720581429E0;-2.261935949E0;2.508319914E-1;-3.063129902E0
2.725373657E0;-2.132536888E0;7.395599782E-2;-3.311427116E0
2.730165659E0;-1.829699993E0;2.980699949E-2;-3.360215902E0
2.734957734E0;-1.608095050E0;8.507300168E-2;-2.431396961E0
2.739749965E0;-1.268596053E0;-9.972500056E-2;-2.124970913E0
2.744542025E0;-1.113795042E0;-3.422420025E-1;-2.802777052E0
2.749334254E0;-1.187445998E0;-2.893939912E-1;-1.927423954E0
2.754126333E0;-9.672430158E-1;-3.838900030E-1;-9.659469724E-1
2.758918557E0;-8.407689929E-1;-5.696380138E-1;-3.341900110E-1
2.763710636E0;-9.435179830E-1;-7.236009836E-1;2.127050012E-1
2.768502636E0;-1.460422993E0;-1.354311943E0;4.729050100E-1
2.773294879E0;-7.464619875E-1;-1.376773000E0;6.249629855E-1
2.778086958E0;-5.044450164E-1;-1.022789001E0;9.688180089E-1
2.782878958E0;-2.861250043E-1;-7.013469934E-1;1.004763007E0
2.787671167E0;1.829950064E-1;-8.858879805E-1;9.622700214E-1
2.792463246E0;-1.181880012E-1;-1.493077993E0;1.024608016E0
2.797255475E0;4.410049915E-1;-2.145560026E0;1.467041969E0
2.802047554E0;1.014425039E0;-2.749336004E0;1.576169968E0
2.806839782E0;8.392930031E-1;-2.297918081E0;1.685456991E0
2.811631784E0;3.160920143E-1;-1.478692055E0;1.991387963E0
2.816423859E0;2.400400043E-1;-1.208706975E0;2.197165012E0
2.821216090E0;-1.201739982E-1;-5.853819847E-1;2.330279112E0
2.826008169E0;-8.633299917E-2;-5.772609711E-1;2.403573036E0
2.830800393E0;5.063499883E-2;-8.208940029E-1;2.439558983E0
2.835592395E0;1.272870004E-1;-1.244411945E0;1.693853021E0
2.840384470E0;1.347859949E-1;-1.592373013E0;1.185722947E0
2.845176697E0;1.413299982E-2;-1.363168001E0;6.718099713E-1
2.849968776E0;-1.489039958E-1;-1.087532997E0;-1.325459927E-1
2.854761004E0;-3.417379856E-1;-8.295410275E-1;-1.155841947E0
2.859553083E0;-5.541409850E-1;-5.738999844E-1;-2.092633009E0
2.864345083E0;-7.569079995E-1;-1.989510059E-1;-2.841351032E0
2.869137312E0;-9.147459865E-1;9.723400325E-2;-3.694859028E0
2.873929391E0;-9.362279773E-1;2.455420047E-1;-4.603700161E0
2.878721620E0;-1.035555959E0;3.798170090E-1;-5.338797092E0
2.883513699E0;-1.103919983E0;3.939929903E-1;-5.821718216E0
2.888305699E0;-1.290506959E0;5.069199800E-1;-6.230024815E0
2.893097928E0;-1.628414035E0;7.457900047E-1;-6.233822823E0
2.897890006E0;-1.965157986E0;1.008023977E0;-6.096612930E0
2.902682220E0;-2.327554941E0;1.241055965E0;-5.691537857E0
2.907474299E0;-2.656713963E0;1.408983946E0;-5.806218147E0
2.912266299E0;-3.008271933E0;1.538231015E0;-6.031558037E0
2.917058542E0;-3.067148924E0;1.846380949E0;-5.725985050E0
2.921850621E0;-2.977315903E0;2.200823069E0;-5.580976963E0
2.926642850E0;-2.814481020E0;2.616774082E0;-6.249602795E0
2.931434925E0;-1.755004048E0;2.375082970E0;-6.764527798E0
2.936226925E0;-9.423879981E-1;1.088721037E0;-7.894127846E0
2.941019153E0;-9.041389823E-1;6.221420169E-1;-7.064826012E0
2.945811208E0;-2.499630004E-1;3.894900158E-2;-5.708053112E0
2.950603437E0;2.254959941E-1;-4.457570016E-1;-4.401865959E0
2.955395439E0;1.135050058E0;-1.070009947E0;-3.455957890E0
2.960187514E0;1.259768009E0;-1.430377007E0;-2.457926989E0
2.964979745E0;1.054563046E0;-1.457052946E0;-1.550361991E0
2.969771824E0;1.329769015E0;-1.418050051E0;-8.199890256E-1
2.974564053E0;1.700860977E0;-1.542364955E0;-2.153809965E-1
2.979356132E0;1.873108029E0;-1.535545945E0;1.057374954E0
2.984148132E0;1.760612965E0;-1.640254974E0;1.156862020E0
2.988940359E0;8.428670168E-1;-8.670079708E-1;4.215583801E0
2.993732438E0;6.766819954E-1;-6.285309792E-1;7.084546089E0
2.998524667E0;8.754879832E-1;-9.434750080E-1;4.849422932E0
3.003316655E0;4.267230034E-1;-7.828590274E-1;3.731148958E0
3.008108730E0;8.230509758E-1;-4.551289976E-1;3.300591946E0
3.012900961E0;1.171514034E0;-7.205600291E-2;3.392399073E0
3.017693040E0;6.460350156E-1;5.341039896E-1;3.029623985E0
3.022485268E0;7.395499945E-2;8.879489899E-1;2.470298052E0
3.027277270E0;-5.701779723E-1;1.158555984E0;2.075295925E0
3.032069345E0;-1.018911958E0;1.349715948E0;2.085943937E0
3.036861576E0;-1.362512946E0;1.533743978E0;1.961107969E0
3.041653655E0;-1.814761043E0;1.734709978E0;1.985717058E0
3.046445884E0;-2.318007946E0;1.923190951E0;1.697958946E0
3.051237886E0;-2.637376070E0;1.927062035E0;1.478409052E0
3.056029961E0;-2.889775991E0;1.935801983E0;1.147349954E0
3.060822192E0;-3.052063942E0;1.782232046E0;8.229929805E-1
3.065614271E0;-2.988246918E0;1.715913057E0;4.419830143E-1
3.070406499E0;-2.923666954E0;1.582564950E0;4.447799921E-2
3.075198506E0;-2.808378935E0;1.414556026E0;-2.814390063E-1
3.079990581E0;-2.559293032E0;1.233757019E0;-7.106620073E-1
3.084782812E0;-2.317887068E0;1.170124054E0;-1.075886965E0
3.089574891E0;-1.921901941E0;1.213624954E0;-1.412804961E0
3.094367120E0;-1.383460999E0;1.060402989E0;-1.747854948E0
3.099159122E0;-1.064481974E0;9.704070091E-1;-2.356096029E0
3.103951197E0;-8.981969953E-1;9.674419761E-1;-2.216362000E0
3.108743428E0;-6.936050057E-1;1.071557045E0;-2.446083069E0
3.113535430E0;-6.461189985E-1;1.267042994E0;-2.267679930E0
3.118327489E0;-7.394289970E-1;1.501835942E0;-1.959146976E0
3.123119720E0;-7.379630208E-1;1.730842948E0;-1.472669005E0
3.127911799E0;-7.354480028E-1;1.867084980E0;-1.123919010E0
3.132704028E0;-6.152290106E-1;1.947901011E0;-1.024927020E0
3.137496107E0;-4.129570127E-1;1.985507011E0;-7.951319814E-1
3.142288107E0;-3.447090089E-1;2.086302042E0;-7.166000009E-1
3.147080322E0;-2.532089949E-1;2.223325968E0;-6.503210068E-1
3.151872401E0;-2.922390103E-1;2.433263063E0;-1.059809998E-1
3.156664629E0;-4.946910143E-1;2.561844110E0;4.260019958E-1
3.161456645E0;-7.240800261E-1;2.801234961E0;7.279109955E-1
3.166248951E0;-1.008834958E0;3.089169025E0;1.386978030E0
3.171040953E0;-1.766455054E0;3.449065924E0;2.470560074E0
3.175833025E0;-2.483166933E0;3.741503954E0;3.708642960E0
3.180625025E0;-2.927495003E0;3.796027899E0;4.706627846E0
3.185417254E0;-2.933186054E0;3.293243885E0;4.133629799E0
3.190209347E0;-3.216778994E0;2.900187969E0;5.509360790E0
3.195001576E0;-2.623903990E0;2.346200943E0;5.944341183E0
3.199793654E0;-2.019692898E0;1.932072997E0;6.132511139E0
3.204585883E0;-1.498561025E0;1.639562964E0;5.728789806E0
3.209377885E0;-9.907820225E-1;1.450448036E0;5.034440994E0
3.214169960E0;-5.108820200E-1;1.573672056E0;4.211835861E0
3.218962192E0;-1.504939944E-1;1.165372014E0;2.812309027E0
3.223754271E0;-1.006476998E0;2.785841942E0;4.302217960E0
3.228546500E0;-1.293766975E0;3.931644917E0;5.527069092E0
3.233338502E0;-1.172098994E0;3.696985006E0;4.225024223E0
3.238130577E0;-4.851000011E-1;2.542927980E0;2.190926075E0
3.242922807E0;-8.507700264E-2;1.643345952E0;1.444794059E0
3.247714823E0;6.815350056E-1;6.360440254E-1;6.870920062E-1
3.252506898E0;1.856827021E0;-4.399299920E-1;2.051820010E-1
3.257299129E0;2.941653013E0;-1.657809019E0;-1.533060074E-1
3.262091203E0;3.868541956E0;-2.886121988E0;-5.761089921E-1
3.266883432E0;4.376708031E0;-4.083304882E0;-1.056676030E0
3.271675434E0;4.587554932E0;-4.977972984E0;-1.302538037E0
3.276467509E0;4.569971085E0;-5.453980923E0;-1.247789025E0
3.281259740E0;4.568894863E0;-5.606338024E0;-1.321544051E0
3.286051819E0;4.491633892E0;-5.500067234E0;-1.378950953E0
3.290843819E0;4.323362827E0;-5.131990910E0;-1.543745041E0
3.295636047E0;3.854872942E0;-4.612230778E0;-1.694136024E0
3.300428126E0;3.227107048E0;-4.126117229E0;-1.522326946E0
3.305220350E0;2.552928925E0;-3.664361954E0;-1.315615058E0
3.310012352E0;1.921674967E0;-3.027506113E0;-9.033910036E-1
3.314804427E0;1.073210001E0;-2.178463936E0;-2.780799866E-1
3.319596658E0;3.396590054E-1;-1.398519993E0;7.182549834E-1
3.324388737E0;-3.195610046E-1;-8.276829720E-1;1.683529019E0
3.329180737E0;-9.761149883E-1;-6.433690190E-1;2.129757881E0
3.333972982E0;-1.445112944E0;-1.625369936E-1;2.874905109E0
3.338765060E0;-1.233189940E0;7.966200262E-2;2.904148102E0
3.343557289E0;-8.213549852E-1;5.099700019E-2;2.440592051E0
3.348349305E0;-3.359400034E-1;-1.869069934E-1;1.506948948E0
3.353141380E0;1.768050045E-1;-3.948200047E-1;3.418709934E-1
3.357933611E0;7.650840282E-1;-6.019709706E-1;-6.389060020E-1
3.362725709E0;1.269762039E0;-9.051989913E-1;-1.613327026E0
3.367517938E0;1.733621955E0;-1.040897965E0;-2.458730936E0
3.372309940E0;2.177148104E0;-1.075984955E0;-3.007416964E0
3.377102034E0;2.377387047E0;-1.062121034E0;-3.496834040E0
3.381894264E0;2.576248884E0;-1.010336041E0;-3.886734962E0
3.386686266E0;2.377644062E0;-9.030709863E-1;-4.144176006E0
3.391478327E0;2.081517935E0;-7.637000084E-1;-4.123469830E0
3.396270558E0;1.645041943E0;-5.920320153E-1;-3.942063093E0
3.401062637E0;1.123474956E0;-4.248110056E-1;-3.578038931E0
3.405854866E0;6.001819968E-1;-3.514660001E-1;-3.215289116E0
3.410646868E0;2.701199949E-1;-4.298189878E-1;-2.879769087E0
3.415438943E0;1.935099997E-2;-5.232089758E-1;-2.501926899E0
3.420231159E0;-2.081079930E-1;-5.235490203E-1;-2.156011105E0
3.425023237E0;-3.428109884E-1;-5.795300007E-1;-1.767685056E0
3.429815466E0;-5.265610218E-1;-7.001950145E-1;-1.376525044E0
3.434607468E0;-4.645960033E-1;-8.826069832E-1;-9.561489820E-1
3.439399543E0;-3.470300138E-1;-1.005326986E0;-6.928679943E-1
3.444191774E0;-2.192869931E-1;-1.018998981E0;-5.192090273E-1
3.448983776E0;-7.112699747E-2;-1.029397011E0;-3.823699951E-1
3.453775851E0;2.686600015E-2;-9.509469867E-1;-2.031860054E-1
3.458568082E0;1.017320007E-1;-9.319779873E-1;8.527400345E-2
3.463360161E0;1.440140009E-1;-8.562160134E-1;3.087039888E-1
3.468152161E0;1.922589988E-1;-7.510560155E-1;5.321829915E-1
3.472944389E0;3.111279905E-1;-6.033859849E-1;6.748399734E-1
3.477736468E0;3.532409966E-1;-4.359059930E-1;7.825019956E-1
3.482528697E0;4.314729869E-1;-3.212719858E-1;8.195239902E-1
3.487320776E0;4.338079989E-1;-2.122479975E-1;8.052279949E-1
3.492112776E0;4.086560011E-1;-4.969999939E-2;6.823340058E-1
3.496905005E0;4.282589853E-1;1.420689970E-1;5.706170201E-1
3.501697007E0;2.399169952E-1;3.651750088E-1;4.915609956E-1
3.506489087E0;-2.930499986E-2;6.528310180E-1;4.835470021E-1
3.511281318E0;-3.340159953E-1;8.091109991E-1;4.099430144E-1
3.516073397E0;-8.317869902E-1;1.120960951E0;4.288510084E-1
3.520865610E0;-1.084278941E0;1.304126978E0;4.732399881E-1
3.525657612E0;-1.169538975E0;1.428118944E0;3.062149882E-1
3.530449687E0;-1.131481051E0;1.410321951E0;1.764149964E-1
3.535241918E0;-1.049541950E0;1.296959996E0;-1.127289981E-1
3.540033997E0;-9.192759991E-1;1.215489984E0;-4.368959963E-1
3.544826226E0;-7.932670116E-1;1.197510004E0;-7.627580166E-1
3.549618228E0;-8.024970293E-1;1.181370974E0;-1.085850000E0
3.554410303E0;-6.201199889E-1;1.134526968E0;-1.368123055E0
3.559202305E0;-4.236010015E-1;1.050598979E0;-1.593112946E0
3.563994610E0;-2.676180005E-1;9.420859814E-1;-1.816153049E0
3.568786612E0;-9.700900316E-2;8.358809948E-1;-1.920161009E0
3.573578841E0;2.159499936E-2;7.293409705E-1;-2.120573044E0
3.578370843E0;1.080510020E-1;6.820150018E-1;-2.285660982E0
3.583162918E0;2.225109935E-1;7.224540114E-1;-2.372288942E0
3.587955149E0;2.719390094E-1;7.096880078E-1;-2.428502083E0
3.592747209E0;2.020819932E-1;7.580209970E-1;-2.588217020E0
3.597539209E0;1.571359932E-1;7.368220091E-1;-2.523914099E0
3.602331438E0;2.053900063E-2;7.562090158E-1;-2.357785940E0
3.607123498E0;4.439000040E-3;6.488190293E-1;-2.197552919E0
3.611915726E0;-1.061279997E-1;6.962370276E-1;-1.918393970E0
3.616707728E0;-1.293289959E-1;5.536209941E-1;-1.675886035E0
3.621500053E0;8.116000332E-3;3.640640080E-1;-1.417011976E0
3.626292055E0;-4.954000004E-3;3.890100121E-1;-1.339728951E0
3.631084132E0;1.160710007E-1;2.076719999E-1;-1.209609985E0
3.635876132E0;1.540299971E-2;3.305540085E-1;-1.279814959E0
3.640668361E0;1.231729984E-1;3.422020078E-1;-1.205935955E0
3.645460440E0;2.669099867E-1;3.338449895E-1;-1.129325032E0
3.650252669E0;2.795070112E-1;3.674969971E-1;-1.140928984E0
3.655044671E0;1.499720067E-1;4.718039930E-1;-1.056478024E0
3.659836746E0;8.155900240E-2;4.961180091E-1;-9.861469865E-1
3.664628752E0;-8.551300317E-2;7.436289787E-1;-8.123459816E-1
3.669421057E0;-1.533689946E-1;8.390359879E-1;-6.405619979E-1
3.674213059E0;-2.590639889E-1;9.831249714E-1;-5.448070168E-1
3.679005293E0;-2.461999953E-1;9.754800200E-1;-5.610949993E-1
3.683797372E0;-2.607890069E-1;9.315209985E-1;-6.130030155E-1
3.688589372E0;-2.075340003E-1;8.735269904E-1;-6.217589974E-1
3.693381601E0;-1.559730023E-1;8.614400029E-1;-6.999220252E-1
3.698173680E0;-6.318400055E-2;7.882599831E-1;-8.022710085E-1
3.702965908E0;1.275000046E-3;7.168279886E-1;-8.739619851E-1
3.707757915E0;6.362099946E-2;5.950739980E-1;-9.271879792E-1
3.712549990E0;2.142740041E-1;4.043900073E-1;-9.620980024E-1
3.717342221E0;4.484120011E-1;2.068320066E-1;-1.071971059E0
3.722134228E0;7.119870186E-1;1.286509931E-1;-1.113000035E0
3.726926303E0;9.296659827E-1;2.097699977E-2;-1.135442019E0
3.731718534E0;1.038329959E0;-9.018699825E-2;-1.115396976E0
3.736510608E0;1.053454995E0;-1.526329964E-1;-9.833829999E-1
3.741302608E0;1.049582958E0;-2.192710042E-1;-7.752630115E-1
3.746094837E0;1.152680039E0;-2.663359940E-1;-5.914160013E-1
3.750886930E0;1.140501976E0;-2.703270018E-1;-4.580619931E-1
3.755679158E0;1.049584031E0;-3.171620071E-1;-2.077790052E-1
3.760471160E0;9.399489760E-1;-3.306230009E-1;1.092759967E-1
3.765263235E0;8.256369829E-1;-2.420819998E-1;3.905020058E-1
3.770055466E0;8.228530288E-1;-2.188829929E-1;7.005829811E-1
3.774847545E0;8.613409996E-1;-2.228929996E-1;9.702519774E-1
3.779639545E0;8.454430103E-1;-1.946370006E-1;1.161319017E0
3.784431774E0;9.135109782E-1;-1.556340009E-1;1.436648011E0
3.789223776E0;9.336400032E-1;-1.154730022E-1;1.683732033E0
3.794015851E0;8.388749957E-1;-2.422500029E-2;1.761422038E0
3.798808082E0;8.635579944E-1;-9.422899783E-2;1.623980045E0
3.803600160E0;5.734999776E-1;2.344429940E-1;2.148262978E0
3.808392375E0;6.393520236E-1;4.160740077E-1;2.340213060E0
3.813184377E0;5.434330106E-1;3.963209987E-1;2.161315918E0
3.817976452E0;4.495700002E-1;4.580529928E-1;2.121301889E0
3.822768454E0;3.679310083E-1;4.985029995E-1;2.239196062E0
3.827560760E0;3.990809917E-1;5.247340202E-1;2.433640003E0
3.832352762E0;4.203900099E-1;4.984309971E-1;2.482016087E0
3.837145005E0;3.481729925E-1;5.103809834E-1;2.530441046E0
3.841937007E0;2.353390008E-1;5.149189830E-1;2.595707893E0
3.846729082E0;1.874810010E-1;6.267189980E-1;2.641974926E0
3.851521293E0;-8.420000086E-4;6.685159802E-1;2.733867884E0
3.856313372E0;-1.119880006E-1;6.858429909E-1;2.859428883E0
3.861105372E0;-2.609789968E-1;6.881409883E-1;2.997170925E0
3.865897620E0;-3.787600100E-1;8.284559846E-1;3.070583105E0
3.870689699E0;-5.968610048E-1;9.054350257E-1;3.139596939E0
3.875481928E0;-7.000089884E-1;8.950240016E-1;3.151593924E0
3.880273935E0;-8.225870132E-1;7.973120213E-1;3.108973026E0
3.885066010E0;-7.183820009E-1;9.378769994E-1;2.990236998E0
3.889858012E0;-8.074439764E-1;1.213765979E0;2.914974928E0
3.894650318E0;-8.525990248E-1;1.038424015E0;2.782605886E0
3.899442320E0;-7.539439797E-1;9.484949708E-1;2.636166096E0
3.904234548E0;-6.743460298E-1;9.228129983E-1;2.487497091E0
3.909026574E0;-6.521030068E-1;8.779270053E-1;2.267035961E0
3.913818649E0;-7.059770226E-1;7.733590007E-1;2.077617884E0
3.918610880E0;-7.493690252E-1;6.786580086E-1;1.919167042E0
3.923402964E0;-9.123039842E-1;5.988579988E-1;1.829566956E0
3.928194964E0;-1.102252960E0;6.507430077E-1;1.744660020E0
3.932987193E0;-1.514556050E0;5.738970041E-1;1.769526005E0
3.937779253E0;-1.895938993E0;3.568640053E-1;1.853739023E0
3.942571253E0;-2.034923077E0;1.479730010E-1;1.954385042E0
3.947363477E0;-2.061996937E0;-1.150399968E-1;2.071553946E0
3.952155555E0;-2.001785994E0;-3.799610138E-1;2.128843069E0
3.956947555E0;-2.004893064E0;-6.617130041E-1;2.090522051E0
3.961739798E0;-1.954118967E0;-9.392189980E-1;1.971138954E0
3.966531877E0;-1.875923991E0;-1.203222036E0;1.777992964E0
3.971324106E0;-1.648911953E0;-1.406003952E0;1.566252947E0
3.976116123E0;-1.597828031E0;-1.650125027E0;1.352470994E0
3.980908198E0;-1.450476050E0;-1.863661051E0;1.160586953E0
3.985700429E0;-1.271837950E0;-1.989570975E0;9.213359952E-1
3.990492508E0;-1.155071974E0;-2.099865913E0;6.563230157E-1
3.995284508E0;-1.102149963E0;-2.182787895E0;3.296909928E-1
4.000076736E0;-1.081480980E0;-2.259975910E0;-1.016459987E-1
4.004868814E0;-9.925559759E-1;-2.302628994E0;-5.347530246E-1
4.009660814E0;-9.115729928E-1;-2.329770088E0;-9.529399872E-1
4.014453043E0;-8.713269830E-1;-2.315176964E0;-1.337033033E0
4.019245107E0;-8.635280132E-1;-2.254580975E0;-1.705348015E0
4.024037107E0;-8.551070094E-1;-2.151582956E0;-2.063749075E0
4.028829336E0;-8.795250058E-1;-2.013062000E0;-2.400387049E0
4.033621415E0;-8.958939910E-1;-1.910444975E0;-2.727400064E0
4.038413415E0;-8.586909771E-1;-1.766654015E0;-3.001878023E0
4.043205644E0;-8.181290030E-1;-1.693539977E0;-3.255237103E0
4.047997660E0;-6.644489765E-1;-1.592295051E0;-3.411115885E0
4.052789965E0;-5.558789968E-1;-1.464859009E0;-3.534358978E0
4.057581967E0;-4.778859913E-1;-1.354100943E0;-3.605933905E0
4.062374044E0;-3.968920112E-1;-1.314818025E0;-3.621184111E0
4.067166044E0;-3.008509874E-1;-1.275146961E0;-3.647181988E0
4.071958273E0;-2.305040061E-1;-1.196653962E0;-3.672020912E0
4.076750367E0;-1.666390002E-1;-1.141479015E0;-3.710128069E0
4.081542596E0;-1.280480027E-1;-1.106938004E0;-3.696994066E0
4.086334598E0;-1.432500035E-1;-1.042678952E0;-3.575201035E0
4.091126653E0;-2.385330051E-1;-9.632549882E-1;-3.359028101E0
4.095918883E0;-3.184469938E-1;-8.738059998E-1;-3.079431057E0
4.100710962E0;-4.002290070E-1;-8.104969859E-1;-2.788950920E0
4.105502977E0;-5.107169747E-1;-7.401300073E-1;-2.518549919E0
4.110295206E0;-5.808780193E-1;-7.204059958E-1;-2.258533955E0
4.115087285E0;-6.278560162E-1;-6.700890064E-1;-1.987257957E0
4.119879280E0;-7.390199900E-1;-6.284779906E-1;-1.850443959E0
4.124671509E0;-9.435129762E-1;-6.377270222E-1;-1.714316010E0
4.129463511E0;-7.220839858E-1;-4.664120078E-1;-1.552140951E0
4.134255576E0;-7.819290161E-1;-2.891879976E-1;-1.392732024E0
4.139047807E0;-8.505049944E-1;-3.968470097E-1;-1.248590946E0
4.143839886E0;-7.426949739E-1;-4.163570106E-1;-1.191316009E0
4.148631901E0;-7.020599842E-1;-3.671619892E-1;-1.091498971E0
4.153424129E0;-6.970019937E-1;-3.211010098E-1;-9.778670073E-1
4.158216208E0;-5.819169879E-1;-3.070279956E-1;-8.671060205E-1
4.163008451E0;-4.786660075E-1;-2.800340056E-1;-8.092610240E-1
4.167800453E0;-4.106160104E-1;-2.095279992E-1;-7.298979759E-1
4.172592528E0;-3.699940145E-1;-1.368339956E-1;-6.335679889E-1
4.177384540E0;-3.800069988E-1;-1.243920028E-1;-5.489469767E-1
4.182176769E0;-3.803609908E-1;-8.901199698E-2;-4.758119881E-1
4.186968848E0;-4.422430098E-1;2.371400036E-2;-3.636539876E-1
4.191760833E0;-4.962610006E-1;1.846569926E-1;-2.386779934E-1
4.196553062E0;-5.878099799E-1;3.313280046E-1;-1.343429983E-1
4.201345140E0;-6.311740279E-1;4.372220039E-1;-1.008730009E-1
4.206137112E0;-6.672829986E-1;4.881330132E-1;-1.072209999E-1
4.210929340E0;-7.367929816E-1;5.799139738E-1;-1.223030016E-1
4.215721419E0;-8.206940293E-1;7.102770209E-1;-1.413809955E-1
4.220513653E0;-7.501450181E-1;7.959100008E-1;-1.718070060E-1
4.225305655E0;-6.907280087E-1;8.325139880E-1;-2.784050107E-1
4.230097730E0;-5.685589910E-1;8.352169991E-1;-3.680599928E-1
4.234889732E0;-5.147579908E-1;8.929229975E-1;-3.714669943E-1
4.239681961E0;-3.791599870E-1;9.126449823E-1;-3.964860141E-1
4.244474040E0;-2.553760111E-1;9.565790296E-1;-3.976019919E-1
4.249266268E0;-2.434439957E-1;9.909980297E-1;-4.154390097E-1
4.254058270E0;-2.351489961E-1;9.774330258E-1;-4.188269973E-1
4.258850345E0;-1.440189928E-1;6.552960277E-1;-6.928150058E-1
4.263642590E0;-3.689959943E-1;9.374610186E-1;-2.959139943E-1
4.268434592E0;-1.861439943E-1;9.530209899E-1;-1.979449987E-1
4.273226667E0;-1.625690013E-1;8.818870187E-1;-4.564949870E-1
4.278018660E0;-2.273720056E-1;8.084290028E-1;-5.689880252E-1
4.282810889E0;-2.910340130E-1;6.732839942E-1;-5.021070242E-1
4.287602968E0;-3.387010098E-1;5.406360030E-1;-3.419109881E-1
4.292395187E0;-4.065670073E-1;4.623529911E-1;-2.413460016E-1
4.297187189E0;-4.665800035E-1;4.329980016E-1;-1.642639935E-1
4.301979264E0;-4.975180030E-1;4.593780041E-1;-1.368730068E-1
4.306771480E0;-5.350769758E-1;4.815480113E-1;-2.046390027E-1
4.311563482E0;-4.620400071E-1;4.395749867E-1;-5.040159822E-1
4.316355557E0;-6.112970114E-1;7.111960053E-1;-3.812560141E-1
4.321147802E0;-4.564299881E-1;7.896580100E-1;-3.872349858E-1
4.325939881E0;-4.449520111E-1;6.881009936E-1;-5.199630260E-1
4.330731881E0;-7.226830125E-1;6.503700018E-1;-5.830799937E-1
4.335523862E0;-7.277259827E-1;6.808859706E-1;-4.974249899E-1
4.340316091E0;-7.000169754E-1;7.242349982E-1;-5.094630122E-1
4.345108170E0;-8.263130188E-1;7.854750156E-1;-5.666120052E-1
4.349900399E0;-7.799890041E-1;8.413230181E-1;-7.193269730E-1
4.354692401E0;-6.885319948E-1;8.669379950E-1;-7.573999763E-1
4.359484475E0;-6.741560102E-1;8.135039806E-1;-6.023280025E-1
4.364276687E0;-7.082920074E-1;8.697209954E-1;-3.784610033E-1
4.369068689E0;-6.164940000E-1;8.985530138E-1;-2.627649903E-1
4.373860764E0;-5.536400080E-1;8.591579795E-1;-1.666390002E-1
4.378652975E0;-5.242339969E-1;7.804200053E-1;-8.733999915E-3
4.383445054E0;-4.329339862E-1;7.268199921E-1;1.846790016E-1
4.388237054E0;-2.996299863E-1;6.910439730E-1;4.208619893E-1
4.393029283E0;-2.704310119E-1;6.605929732E-1;5.300019979E-1
4.397821362E0;-1.780190021E-1;6.164559722E-1;5.934690237E-1
4.402613362E0;-6.301599741E-2;5.681419969E-1;6.376219988E-1
4.407405581E0;-6.207999773E-3;6.208149791E-1;7.510949969E-1
4.412197583E0;-9.305299819E-2;7.331209779E-1;8.431029916E-1
4.416989658E0;-2.368890047E-1;7.278310061E-1;9.208250046E-1
4.421781893E0;-3.394860029E-1;7.125309706E-1;1.003471017E0
4.426573895E0;-3.268159926E-1;5.698440075E-1;8.875510097E-1
4.431365970E0;-4.863899946E-1;7.412319779E-1;1.045155048E0
4.436157987E0;-4.979360104E-1;7.341319919E-1;1.418617964E0
4.440950293E0;-6.108379960E-1;1.080152035E0;2.091918945E0
4.445742295E0;-5.463839769E-1;7.797399759E-1;1.643105030E0
4.450534290E0;-6.327030063E-1;7.745109797E-1;1.561208010E0
4.455326519E0;-6.186940074E-1;8.036239743E-1;1.714504957E0
4.460118598E0;-5.286449790E-1;8.547180295E-1;1.811051965E0
4.464910826E0;-4.347980022E-1;8.369359970E-1;1.783782959E0
4.469702828E0;-4.068059921E-1;9.156619906E-1;1.670966029E0
4.474494903E0;-4.420489967E-1;1.057476044E0;1.486932039E0
4.479287134E0;-5.449849963E-1;1.267807007E0;1.430174947E0
4.484079136E0;-6.057869792E-1;1.515797973E0;1.433578014E0
4.488871211E0;-5.842339993E-1;1.593631029E0;1.482638001E0
4.493663432E0;-5.493869781E-1;1.477139950E0;1.337985992E0
4.498455434E0;-5.007680058E-1;1.420132041E0;1.294101000E0
4.503247509E0;-3.543519974E-1;1.317065954E0;1.257671952E0
4.508039506E0;-2.149900049E-1;1.260952950E0;1.379647970E0
4.512831735E0;3.179400042E-2;1.174829006E0;1.301046014E0
4.517623813E0;2.615300119E-1;1.107365012E0;1.277770996E0
4.522415808E0;3.524810076E-1;1.138110995E0;1.347916961E0
4.527208037E0;3.189640045E-1;1.042992949E0;1.286049962E0
4.532000116E0;4.017339945E-1;8.802959919E-1;1.168539047E0
4.536792360E0;5.378730297E-1;8.632349968E-1;9.881809950E-1
4.541584362E0;7.129089832E-1;7.559919953E-1;9.671850204E-1
4.546376437E0;8.433899879E-1;5.593879819E-1;9.663460255E-1
4.551168668E0;8.008249998E-1;4.720630050E-1;1.031134009E0
4.555960670E0;9.171550274E-1;4.027740061E-1;1.113819003E0
4.560752745E0;1.048375010E0;3.558309972E-1;1.092506051E0
4.565544747E0;9.969189763E-1;2.187500000E-1;9.096509814E-1
4.570336975E0;7.894830108E-1;3.024300039E-1;1.228410006E0
4.575129054E0;8.255540133E-1;2.721230090E-1;1.452646017E0
4.579921054E0;7.982850075E-1;1.517910063E-1;1.433951974E0
4.584713283E0;6.017559767E-1;7.724999636E-2;1.505262017E0
4.589505362E0;5.091230273E-1;7.374099642E-2;1.573596954E0
4.594297362E0;4.988920093E-1;-1.702399924E-2;1.631876945E0
4.599089591E0;4.705739915E-1;-1.378089935E-1;1.622717977E0
4.603881593E0;4.363070130E-1;-2.243279964E-1;1.589334011E0
4.608673672E0;4.012199938E-1;-3.295210004E-1;1.589251995E0
4.613465903E0;3.726710081E-1;-5.394700170E-1;1.576923013E0
4.618257905E0;3.411389887E-1;-7.586479783E-1;1.609886050E0
4.623049966E0;2.946450114E-1;-9.921560287E-1;1.678668976E0
4.627842196E0;1.901739985E-1;-1.207129955E0;1.788279057E0
4.632634198E0;1.277749985E-1;-1.420964956E0;1.869536996E0
4.637426273E0;7.809700072E-2;-1.622398973E0;1.872452974E0
4.642218504E0;1.439800020E-2;-1.807176948E0;1.830752969E0
4.647010506E0;9.377100319E-2;-2.004527092E0;1.720731020E0
4.651802576E0;2.315360010E-1;-2.209835052E0;1.394080043E0
4.656594807E0;2.674579918E-1;-2.269975901E0;9.417870045E-1
4.661386809E0;2.836129963E-1;-2.215924025E0;4.211849868E-1
4.666178884E0;2.143200040E-1;-2.119489908E0;-3.378799930E-2
4.670970886E0;1.174559966E-1;-1.975682020E0;-4.304389954E-1
4.675763115E0;-7.353899628E-2;-1.793815970E0;-6.851000190E-1
4.680555198E0;-1.462289989E-1;-1.748034000E0;-9.655290246E-1
4.685347198E0;-2.057649940E-1;-1.635468960E0;-1.336164951E0
4.690139427E0;-1.538790017E-1;-1.515894055E0;-1.807394981E0
4.694931506E0;-1.005159989E-1;-1.368306041E0;-2.197108984E0
4.699723506E0;-4.136500135E-2;-1.308765054E0;-2.503282070E0
4.704515735E0;4.958600178E-2;-1.281453967E0;-2.685445070E0
4.709307820E0;2.460729927E-1;-1.291026950E0;-2.834577084E0
4.714100049E0;4.208590090E-1;-1.294121981E0;-2.955526114E0
4.718892051E0;5.880770087E-1;-1.221272945E0;-3.199131012E0
4.723684121E0;6.355659962E-1;-1.117496967E0;-3.409967899E0
4.728476123E0;6.932309866E-1;-9.799789786E-1;-3.394319057E0
4.733268351E0;8.594070077E-1;-9.023540020E-1;-3.377181053E0
4.738060367E0;1.030930996E0;-9.517379999E-1;-3.456665039E0
4.742852442E0;1.126348972E0;-9.598749876E-1;-3.544411898E0
4.747644673E0;1.288970947E0;-9.405379891E-1;-3.470587969E0
4.752436698E0;1.310250998E0;-7.666910291E-1;-3.239996910E0
4.757228773E0;1.323963046E0;-5.752090216E-1;-2.986534119E0
4.762021004E0;1.305693984E0;-5.961989760E-1;-2.779474974E0
4.766812993E0;1.250583053E0;-6.288809776E-1;-2.544460058E0
4.771605068E0;1.221169949E0;-5.660930276E-1;-2.439326048E0
4.776397070E0;1.299119949E0;-6.137369871E-1;-2.418598890E0
4.781189284E0;1.317240000E0;-6.184110045E-1;-2.257288933E0
4.785981363E0;1.267573953E0;-5.041890144E-1;-2.014170885E0
4.790773363E0;1.222344041E0;-4.912990034E-1;-1.910307050E0
4.795565591E0;1.072021008E0;-4.695419967E-1;-1.766195059E0
4.800357670E0;9.319009781E-1;-4.176709950E-1;-1.576975942E0
4.805149670E0;8.569909930E-1;-3.053129911E-1;-1.363940001E0
4.809941899E0;7.777590156E-1;-1.807219982E-1;-1.122167945E0
4.814733978E0;5.987430215E-1;-8.032999933E-2;-8.778730035E-1
4.819525978E0;4.967370033E-1;6.928800046E-2;-7.169690132E-1
4.824318207E0;4.285379946E-1;2.078199983E-1;-6.201699972E-1
4.829110209E0;3.821200132E-1;2.922120094E-1;-5.851060152E-1
4.833902284E0;3.407610059E-1;4.109460115E-1;-5.447239876E-1
4.838694525E0;3.687660098E-1;4.542280138E-1;-5.254390240E-1
4.843486527E0;3.943069875E-1;5.702199936E-1;-4.649260044E-1
4.848278602E0;4.793260098E-1;6.177690029E-1;-3.895350099E-1
4.853070832E0;5.400599837E-1;6.279209852E-1;-3.854509890E-1
4.857862834E0;4.957630038E-1;6.652399898E-1;-3.809109926E-1
4.862654909E0;4.760180116E-1;6.699960232E-1;-3.927550018E-1
4.867447153E0;4.213860035E-1;6.659839749E-1;-4.042409956E-1
4.872239155E0;3.081119955E-1;6.988019943E-1;-2.645910084E-1
4.877031230E0;2.668829858E-1;6.393929720E-1;-3.017779887E-1
4.881823475E0;2.045799941E-1;5.266190171E-1;-3.028930128E-1
4.886615477E0;1.045370027E-1;6.159579754E-1;-4.425489902E-1
4.891407552E0;1.461659968E-1;6.805880070E-1;-3.880940080E-1
4.896199569E0;2.734769881E-1;5.660619736E-1;-2.953639925E-1
4.900991797E0;2.187760025E-1;3.852320015E-1;-3.368830085E-1
4.905783799E0;9.085799754E-2;3.005380034E-1;-1.367709935E-1
4.910575869E0;8.576299995E-2;2.509779930E-1;-8.018100262E-2
4.915368100E0;1.059070006E-1;2.527059913E-1;1.777549982E-1
4.920160102E0;2.027000040E-1;1.596319973E-1;1.463589966E-1
4.924952191E0;1.480769962E-1;5.321000144E-2;2.635599971E-1
4.929744422E0;1.964280009E-1;2.936969995E-1;6.639689803E-1
4.934536424E0;4.557000101E-1;1.804189980E-1;2.438569963E-1
4.939328494E0;3.829239905E-1;2.564730048E-1;8.582999930E-3
4.944120496E0;5.374850035E-1;2.732760012E-1;-1.927029938E-1
4.948912725E0;5.067639947E-1;5.054579973E-1;-1.516990066E-1
4.953704804E0;6.365590096E-1;5.134959817E-1;-2.755349874E-1
4.958496804E0;7.601760030E-1;3.530310094E-1;-4.112220109E-1
4.963289032E0;7.379289865E-1;2.651590109E-1;-5.683349967E-1
4.968081025E0;5.204510093E-1;6.803969741E-1;2.946699858E-1
4.972873100E0;8.467699885E-1;7.762389779E-1;-1.392579973E-1
4.977665331E0;7.939350009E-1;7.374479771E-1;-3.957569897E-1
4.982457309E0;8.297479749E-1;7.337629795E-1;-5.969679952E-1
4.987249384E0;8.731740117E-1;8.585829735E-1;-7.213870287E-1
4.992041615E0;8.976070285E-1;9.450730085E-1;-9.750959873E-1
4.996833617E0;8.691710234E-1;1.084877014E0;-1.054147959E0
5.001625692E0;8.206170201E-1;1.137642980E0;-1.085608006E0
5.006417694E0;5.738570094E-1;1.213101983E0;-1.098260999E0
5.011209923E0;4.587419927E-1;1.280172944E0;-1.147133946E0
5.016001925E0;4.245519936E-1;1.379385948E0;-1.244104028E0
5.020794000E0;3.947350085E-1;1.451189041E0;-1.267155051E0
5.025586230E0;3.527170122E-1;1.481469035E0;-1.254688978E0
5.030378232E0;4.129840136E-1;1.411008954E0;-1.228376985E0
5.035170307E0;5.206260085E-1;1.316715002E0;-1.092548013E0
5.039962538E0;6.943259835E-1;1.170222044E0;-9.334390163E-1
5.044754540E0;8.334100246E-1;1.059945941E0;-8.036680222E-1
5.049546615E0;9.546309710E-1;9.475849867E-1;-6.457620263E-1
5.054338617E0;1.125208974E0;8.736510277E-1;-3.375689983E-1
5.059130846E0;1.156880021E0;7.871450186E-1;-4.180200025E-2
5.063922848E0;1.150812030E0;5.826640129E-1;2.678340077E-1
5.068714913E0;1.114796042E0;3.648740053E-1;6.010410190E-1
5.073507144E0;1.030269027E0;2.329449952E-1;9.102349877E-1
5.078299146E0;9.569529891E-1;1.426409930E-1;1.159805059E0
5.083091220E0;8.754810095E-1;1.672810018E-1;1.311686993E0
5.087883451E0;9.694830179E-1;1.416019946E-1;1.365970969E0
5.092675439E0;9.759039879E-1;5.426200107E-2;1.389495015E0
5.097467514E0;9.262989759E-1;-2.287600003E-2;1.394170046E0
5.102259745E0;9.023709893E-1;-2.209530026E-1;1.363073945E0
5.107051732E0;9.085459709E-1;-3.628610075E-1;1.413581967E0
5.111843732E0;8.367360234E-1;-1.912070066E-1;1.414342999E0
5.116635807E0;8.914880157E-1;-6.460999697E-2;1.544934988E0
5.121428038E0;5.808550119E-1;1.866489947E-1;1.941776037E0
5.126220040E0;4.216929972E-1;3.250850141E-1;2.200381994E0
5.131012129E0;3.588539958E-1;3.039509952E-1;2.512018919E0
5.135804359E0;1.895399950E-2;6.951149702E-1;4.421317101E0
5.140596361E0;3.584100008E-1;6.571099758E-1;4.986311913E0
5.145388422E0;7.219550014E-1;3.211520016E-1;5.047451019E0
5.150180653E0;1.110494018E0;-3.469400108E-2;4.501623154E0
5.154972661E0;1.583511949E0;-2.690210044E-1;3.633539915E0
5.159764736E0;1.851642013E0;-4.280309975E-1;1.633311033E0
5.164556738E0;2.146506071E0;-3.053599894E-1;7.323020101E-1
5.169348986E0;1.962880969E0;1.737319976E-1;-3.527770042E-1
5.174140988E0;1.680042982E0;6.986219883E-1;-9.783470035E-1
5.178933063E0;1.448163986E0;1.134868026E0;-1.293316007E0
5.183725289E0;8.011050224E-1;1.711087942E0;-1.393815994E0
5.188517291E0;1.844460070E-1;1.925240040E0;-1.256544948E0
5.193309371E0;-5.922999978E-1;2.191657066E0;-1.185469031E0
5.198101601E0;-1.445409060E0;2.425272942E0;-7.690500021E-1
5.202893603E0;-1.799811959E0;2.533076048E0;-4.451690018E-1
5.207685678E0;-2.149833918E0;2.534502983E0;-1.748999953E-2
5.212477680E0;-2.445750952E0;2.443713903E0;2.938120067E-1
5.217269909E0;-2.433758020E0;2.169812918E0;4.601399899E-1
5.222061925E0;-2.140465021E0;1.782824993E0;7.281090021E-1
5.226854000E0;-1.928223014E0;1.590688944E0;9.735080004E-1
5.231646002E0;-1.900678992E0;1.411244035E0;1.306431055E0
5.236438231E0;-1.699785948E0;1.043246031E0;1.731657982E0
5.241230310E0;-1.655917048E0;8.184520006E-1;2.237816095E0
5.246022310E0;-1.406165004E0;5.282269716E-1;2.423058033E0
5.250814539E0;-1.122612000E0;2.581650019E-1;2.457532883E0
5.255606617E0;-8.976889849E-1;-1.070460007E-1;2.408330917E0
5.260398617E0;-7.093070149E-1;-4.313560128E-1;2.459898949E0
5.265190846E0;-4.927659929E-1;-7.653340101E-1;2.418361902E0
5.269982848E0;-3.171870112E-1;-1.214858055E0;2.480161905E0
5.274774923E0;-1.348100007E-1;-1.529103994E0;2.724432945E0
5.279566925E0;1.022910029E-1;-1.950845957E0;3.031657934E0
5.284359158E0;2.626929879E-1;-2.375900984E0;3.308666945E0
5.289151160E0;4.589760005E-1;-2.802771091E0;3.751945019E0
5.293943235E0;4.658170044E-1;-2.976228952E0;3.997735023E0
5.298735466E0;3.476560116E-1;-3.033358097E0;4.501040936E0
5.303527468E0;-8.159999736E-3;-2.857701063E0;4.931602955E0
5.308319547E0;-7.093799859E-2;-2.851495981E0;5.459434986E0
5.313111777E0;-1.592209935E-1;-3.077971935E0;5.704040051E0
5.317903779E0;-1.772159934E-1;-3.356439114E0;5.510058880E0
5.322695766E0;-4.718810022E-1;-3.362660885E0;5.571978092E0
5.327488072E0;-6.413589716E-1;-3.080777884E0;6.060069084E0
5.332280074E0;-5.333660245E-1;-2.936631918E0;5.228992939E0
5.337072137E0;-7.779380083E-1;-2.708906889E0;4.814381123E0
5.341864137E0;-7.629500031E-1;-2.786818981E0;3.841726065E0
5.346656380E0;-5.386859775E-1;-2.883589983E0;2.384982109E0
5.351448382E0;-4.183329940E-1;-2.784718990E0;3.426539898E-1
5.356240457E0;-3.471350074E-1;-2.416685104E0;-1.777408957E0
5.361032448E0;-3.858070076E-1;-2.019102097E0;-3.578841925E0
5.365824677E0;-6.955000162E-1;-1.622753978E0;-4.897143841E0
5.370616756E0;-1.252333045E0;-9.341449738E-1;-5.955433846E0
5.375408742E0;-1.824197054E0;-1.675669998E-1;-6.624849796E0
5.380200742E0;-2.225330114E0;5.422469974E-1;-6.800588131E0
5.384992970E0;-2.351567030E0;5.834450126E-1;-7.110318184E0
5.389785049E0;-2.640762091E0;6.148440242E-1;-7.302902222E0
5.394577049E0;-3.109276056E0;8.402040005E-1;-7.088829041E0
5.399369273E0;-3.366537094E0;1.055691957E0;-6.578231812E0
5.404161352E0;-3.324466944E0;1.064612985E0;-5.981701851E0
5.408953352E0;-3.363076925E0;1.022595048E0;-5.473919868E0
5.413745581E0;-3.375583887E0;9.651809931E-1;-5.073854923E0
5.418537583E0;-3.189853907E0;9.420779943E-1;-4.659169197E0
5.423329648E0;-2.875513077E0;8.712890148E-1;-4.241598129E0
5.428121650E0;-2.559144974E0;7.330200076E-1;-3.861598015E0
5.432913879E0;-2.199465036E0;5.431759953E-1;-3.468599081E0
5.437705881E0;-1.769541025E0;3.938139975E-1;-3.088526964E0
5.442497956E0;-1.440688968E0;2.716099918E-1;-2.615653992E0
5.447289958E0;-1.147397041E0;-1.088920012E-1;-1.970520020E0
5.452082186E0;-6.634539962E-1;-3.236129880E-1;-1.349589944E0
5.456874265E0;-5.989819765E-1;-4.800600111E-1;-8.003360033E-1
5.461666265E0;-5.989770293E-1;-6.896709800E-1;-3.248609900E-1
5.466458494E0;-5.967199802E-1;-8.339430094E-1;4.122199863E-2
5.471250573E0;-6.971690059E-1;-9.115920067E-1;4.106540084E-1
5.476042568E0;-6.494399905E-1;-1.014222026E0;7.356759906E-1
5.480834797E0;-6.186699867E-1;-1.035194993E0;1.002117991E0
5.485626799E0;-5.765969753E-1;-1.089517951E0;1.207574010E0
5.490418809E0;-5.613669753E-1;-1.120183945E0;1.270673990E0
5.495211115E0;-5.534200072E-1;-1.220587969E0;1.224861026E0
5.500003117E0;-5.382480025E-1;-1.261824965E0;1.127621055E0
5.504795193E0;-3.897289932E-1;-1.334751010E0;9.741640091E-1
5.509587193E0;-1.895319968E-1;-1.419955969E0;5.609130263E-1
5.514379417E0;4.574000090E-2;-1.445359945E0;2.229939997E-1
5.519171419E0;2.351360023E-1;-1.465523958E0;-1.427000016E-1
5.523963494E0;3.457820117E-1;-1.456179976E0;-5.243179798E-1
5.528755501E0;3.379740119E-1;-1.259943962E0;-8.380029798E-1
5.533547730E0;2.747800052E-1;-1.070602059E0;-1.143702984E0
5.538339814E0;2.281049937E-1;-9.233880043E-1;-1.398460031E0
5.543131814E0;6.637000293E-2;-6.889860034E-1;-1.616644979E0
5.547923814E0;-1.699669957E-1;-3.817380071E-1;-1.877228022E0
5.552716028E0;-4.559220076E-1;-1.521179974E-1;-2.199832916E0
5.557508107E0;-5.831869841E-1;-1.075180024E-1;-2.402568102E0
5.562300335E0;-6.932340264E-1;4.212599993E-2;-2.502252102E0
5.567092342E0;-8.173959851E-1;1.824699938E-1;-2.621103048E0
5.571884342E0;-9.511510134E-1;3.424310088E-1;-2.672952890E0
5.576676417E0;-9.868000150E-1;3.880009949E-1;-2.755983114E0
5.581468648E0;-1.060989976E0;5.445309877E-1;-2.805603981E0
5.586260650E0;-1.018403053E0;6.375280023E-1;-2.817081928E0
5.591052744E0;-9.138799906E-1;5.977489948E-1;-2.831188917E0
5.595844746E0;-7.783259749E-1;6.410189867E-1;-2.656493902E0
5.600636975E0;-7.124930024E-1;7.335770130E-1;-2.534753084E0
5.605428992E0;-7.378190160E-1;7.055330276E-1;-2.703047991E0
5.610221067E0;-7.030529976E-1;8.133760095E-1;-2.613202095E0
5.615013069E0;-8.603309989E-1;1.184165955E0;-2.402062893E0
5.619805298E0;-6.277750134E-1;1.043169022E0;-2.095824957E0
5.624597300E0;-6.879799962E-1;8.094339967E-1;-1.965253949E0
5.629389375E0;-1.213382006E0;1.057492971E0;-1.926113963E0
5.634181605E0;-1.402292967E0;1.387406945E0;-1.808151007E0
5.638973607E0;-1.619029999E0;1.658414960E0;-1.664142013E0
5.643765682E0;-1.852197051E0;2.040503979E0;-1.225872993E0
5.648557684E0;-1.718399048E0;1.927445054E0;-5.415819883E-1
5.653349913E0;-1.760844946E0;1.627421975E0;-1.450469941E-1
5.658141992E0;-1.793218970E0;1.557724953E0;1.605409980E-1
5.662933992E0;-1.636371970E0;1.526280999E0;4.495669901E-1
5.667726011E0;-1.578713059E0;1.496724963E0;8.274080157E-1
5.672518240E0;-1.478863955E0;1.189370036E0;1.202947974E0
5.677310242E0;-1.392231941E0;1.141461968E0;1.260561943E0
5.682102317E0;-1.487831950E0;1.313856959E0;1.273357034E0
5.686894548E0;-1.285480022E0;1.303138971E0;1.700791955E0
5.691686550E0;-1.208572030E0;1.259286046E0;1.566215038E0
5.696478625E0;-1.217486024E0;1.208781958E0;1.322008014E0
5.701270627E0;-1.116171956E0;1.163946986E0;8.627650142E-1
5.706062855E0;-9.933310151E-1;1.077651024E0;4.181419909E-1
5.710854934E0;-7.531260252E-1;8.939700127E-1;1.888210028E-1
5.715646934E0;-7.035149932E-1;8.308470249E-1;6.457500160E-2
5.720439168E0;-5.197020173E-1;6.880400181E-1;1.074659973E-1
5.725231170E0;-1.689500064E-1;3.611379862E-1;2.167090029E-1
5.730023240E0;-2.102019936E-1;3.134439886E-1;6.630910039E-1
5.734815242E0;-3.235149980E-1;3.288719952E-1;1.142773986E0
5.739607471E0;-3.161610067E-1;1.682009995E-1;1.543259978E0
5.744399482E0;-3.235990107E-1;2.862400003E-2;1.321411967E0
5.749191557E0;-6.443870068E-1;2.767679989E-1;2.354902983E0
5.753983559E0;-6.197180152E-1;3.747929931E-1;2.503163099E0
5.758775788E0;-6.512370110E-1;2.336550057E-1;2.067966938E0
5.763567866E0;-6.653620005E-1;4.214000106E-1;1.941882014E0
5.768359866E0;-6.318269968E-1;6.546540260E-1;1.862064004E0
5.773151866E0;-6.950129867E-1;9.734159708E-1;2.132340908E0
5.777944095E0;-7.590129972E-1;8.019989729E-1;1.754233003E0
5.782736169E0;-5.090720057E-1;4.278079867E-1;1.400074959E0
5.787528398E0;-4.155269861E-1;5.126829743E-1;1.070186973E0
5.792320400E0;-3.456070125E-1;9.050469995E-1;1.097520947E0
5.797112381E0;-3.470830023E-1;8.951799870E-1;7.370190024E-1
5.801904456E0;1.448830068E-1;3.686339855E-1;1.843080074E-1
5.806696444E0;6.227170229E-1;1.685390025E-1;2.586299926E-2
5.811488673E0;6.147819757E-1;3.924080133E-1;3.909629881E-1
5.816280752E0;3.589299917E-1;7.683050036E-1;5.808330178E-1
5.821072771E0;1.262129992E-1;8.158839941E-1;8.297629952E-1
5.825864999E0;7.139000297E-2;8.558509946E-1;1.133074045E0
5.830657001E0;6.917999685E-2;9.477890134E-1;1.534015059E0
5.835448996E0;-7.746999711E-2;1.011247993E0;1.821634054E0
5.840241071E0;-2.105810046E-1;1.008723974E0;1.979699016E0
5.845033302E0;-2.753460109E-1;9.907249808E-1;2.166186094E0
5.849825304E0;-3.341470063E-1;9.049850106E-1;2.357023954E0
5.854617379E0;-3.776839972E-1;7.134559751E-1;2.616806984E0
5.859409386E0;-4.418280125E-1;4.615390003E-1;2.868946075E0
5.864201615E0;-5.572739840E-1;2.159820050E-1;3.046464920E0
5.868993617E0;-5.540879965E-1;-7.360199839E-2;3.254760027E0
5.873785598E0;-4.900079966E-1;-4.288389981E-1;3.484314919E0
5.878577904E0;-4.967510104E-1;-7.519199848E-1;3.605973005E0
5.883369905E0;-4.714989960E-1;-1.067167997E0;3.720443010E0
5.888161982E0;-3.949869871E-1;-1.387042999E0;3.880558014E0
5.892953982E0;-2.359589934E-1;-1.738510013E0;3.815967083E0
5.897746210E0;-6.813699752E-2;-2.052278996E0;3.675112009E0
5.902538212E0;1.165369973E-1;-2.314424992E0;3.446067095E0
5.907330212E0;2.660480142E-1;-2.491872072E0;3.210299015E0
5.912122287E0;4.214160144E-1;-2.628185034E0;2.924819946E0
5.916914518E0;5.017449856E-1;-2.764306068E0;2.603991985E0
5.921706530E0;5.800889730E-1;-2.833759069E0;2.268197060E0
5.926498605E0;6.293050051E-1;-2.834270954E0;1.921154976E0
5.931290607E0;6.783379912E-1;-2.782923937E0;1.570112944E0
5.936082841E0;6.983399987E-1;-2.710876942E0;1.248599052E0
5.940874843E0;6.819990277E-1;-2.613399982E0;9.470660090E-1
5.945666918E0;6.433060169E-1;-2.452399015E0;5.746459961E-1
5.950458910E0;6.226410270E-1;-2.280288935E0;1.648229957E-1
5.955251139E0;6.245520115E-1;-2.103938103E0;-2.633109987E-1
5.960043141E0;6.676530242E-1;-1.922906995E0;-6.643239856E-1
5.964835216E0;7.252939939E-1;-1.794106007E0;-9.856699705E-1
5.969627218E0;7.802150249E-1;-1.762354970E0;-1.390300035E0
5.974419446E0;7.014660239E-1;-1.619539022E0;-1.794445038E0
5.979211525E0;7.485799789E-1;-1.534240007E0;-2.157058001E0
5.984003525E0;7.393609881E-1;-1.364431977E0;-2.397891045E0
5.988795530E0;7.477059960E-1;-1.179003000E0;-2.574554920E0
5.993587759E0;7.635530233E-1;-1.039726019E0;-2.763772011E0
5.998379780E0;7.917150259E-1;-9.699890018E-1;-2.903506994E0
6.003171855E0;7.839869857E-1;-9.022099972E-1;-3.072928905E0
6.007963857E0;7.002589703E-1;-8.936480284E-1;-3.231506109E0
6.012756086E0;6.940540075E-1;-8.485059738E-1;-3.192550898E0
6.017548165E0;7.838299870E-1;-8.144279718E-1;-3.149996042E0
6.022340165E0;8.279049993E-1;-7.935299873E-1;-3.108680010E0
6.027132375E0;8.981090188E-1;-8.002730012E-1;-3.049421072E0
6.031924377E0;1.015898943E0;-8.537629843E-1;-2.977006912E0
6.036716451E0;1.075670958E0;-8.652999997E-1;-2.879472017E0
6.041508454E0;1.137222052E0;-8.659729958E-1;-2.773565054E0
6.046300682E0;1.195827961E0;-9.059950113E-1;-2.628179073E0
6.051092761E0;1.256171942E0;-9.856100082E-1;-2.407278061E0
6.055884761E0;1.299813032E0;-1.045485973E0;-2.107868910E0
6.060676761E0;1.290145993E0;-1.142673016E0;-1.895653009E0
6.065468990E0;1.308619022E0;-1.194177985E0;-1.705682039E0
6.070260992E0;1.331393957E0;-1.179065943E0;-1.532942057E0
6.075053081E0;1.327450037E0;-1.148018956E0;-1.346174955E0
6.079845083E0;1.239720941E0;-1.187265038E0;-1.183709025E0
6.084637312E0;1.194847941E0;-1.125223041E0;-9.757949710E-1
6.089429391E0;1.111449957E0;-1.074635983E0;-7.989779711E-1
6.094221391E0;9.944429994E-1;-1.000113010E0;-6.531029940E-1
6.099013391E0;8.083369732E-1;-8.426899910E-1;-5.307769775E-1
6.103805605E0;7.436980009E-1;-8.122339845E-1;-4.584549963E-1
6.108597684E0;6.025329828E-1;-8.460829854E-1;-2.687689960E-1
6.113389703E0;5.899029970E-1;-9.684979916E-1;6.723300368E-2
6.118181703E0;4.899530113E-1;-9.225689769E-1;4.160239995E-1
6.122973932E0;3.646810055E-1;-8.130689859E-1;4.525400102E-1
6.127765919E0;3.075369895E-1;-7.196210027E-1;2.822549939E-1
6.132557994E0;2.404219955E-1;-6.896319985E-1;2.218200080E-2
6.137350225E0;1.857009977E-1;-5.486090183E-1;-2.846580148E-1
6.142142242E0;2.228740007E-1;-4.042710066E-1;-6.527389884E-1
6.146934317E0;2.183070034E-1;-2.537249923E-1;-9.123060107E-1
6.151726314E0;2.620609999E-1;-1.107250005E-1;-1.207056046E0
6.156518314E0;2.329279929E-1;-8.438999765E-3;-1.410344005E0
6.161310543E0;1.910849959E-1;5.698000081E-3;-1.620527983E0
6.166102545E0;7.338199764E-2;5.340300128E-2;-1.756351948E0
6.170894620E0;-1.052300036E-1;1.751070023E-1;-1.856158972E0
6.175686622E0;-3.295480013E-1;2.848530114E-1;-1.805230975E0
6.180478927E0;-4.599489868E-1;4.239690006E-1;-1.706416965E0
6.185270929E0;-6.094809771E-1;4.851669967E-1;-1.655526996E0
6.190062924E0;-6.948509812E-1;4.826920033E-1;-1.621310949E0
6.194855153E0;-6.932849884E-1;5.625410080E-1;-1.593971968E0
6.199647155E0;-7.081239820E-1;5.981450081E-1;-1.621418953E0
6.204439211E0;-6.774100065E-1;5.610730052E-1;-1.730025053E0
6.209231213E0;-5.559200048E-1;5.546919703E-1;-1.733101010E0
6.214023442E0;-3.539519906E-1;4.527390003E-1;-1.745640039E0
6.218815448E0;-2.411900014E-1;4.246830046E-1;-1.825005054E0
6.223607523E0;-2.946599945E-2;3.872849941E-1;-1.901767969E0
6.228399540E0;1.260460019E-1;3.502770066E-1;-2.059851885E0
6.233191769E0;2.379170060E-1;3.596140146E-1;-2.095971107E0
6.237983771E0;3.920229971E-1;3.701640069E-1;-2.149055958E0
6.242775846E0;5.289999843E-1;3.202979863E-1;-2.111624956E0
6.247567848E0;5.491740108E-1;3.776760101E-1;-1.825819969E0
6.252360076E0;4.744110107E-1;4.963589907E-1;-1.519019008E0
6.257152078E0;4.077079892E-1;4.590170085E-1;-1.172235012E0
6.261944153E0;3.893580139E-1;5.013599992E-1;-1.196835995E0
6.266736155E0;5.315020084E-1;5.178779960E-1;-1.283844948E0
6.271528384E0;5.904819965E-1;4.569639862E-1;-1.108041048E0
6.276320386E0;5.282559991E-1;5.621269941E-1;-7.961540222E-1
6.281112446E0;4.474210143E-1;6.012639999E-1;-5.540750027E-1
6.285904448E0;3.931030035E-1;5.884789824E-1;-5.325099826E-1
6.290696677E0;4.390859902E-1;6.384279728E-1;-6.331440210E-1
6.295488679E0;4.801859856E-1;7.184640169E-1;-2.289569974E-1
6.300280754E0;5.029940009E-1;6.274499893E-1;-1.601160020E-1
6.305072756E0;3.492119908E-1;8.399410248E-1;-2.653999999E-2
6.309864985E0;3.848839998E-1;9.203919768E-1;1.621679962E-1
6.314656987E0;3.873099983E-1;9.550189972E-1;9.475299716E-2
6.319449043E0;2.991929948E-1;1.088606954E0;7.860450149E-1
6.324241045E0;3.974019885E-1;1.181473970E0;6.876540184E-1
6.329033273E0;3.342370093E-1;1.093286991E0;7.854819894E-1
6.333825261E0;4.088320136E-1;9.818040133E-1;5.983729959E-1
6.338617336E0;3.880879879E-1;1.123051047E0;1.552909970E0
6.343409318E0;6.996099949E-1;8.601409793E-1;1.193287015E0
6.348201318E0;8.075569868E-1;7.003480196E-1;1.357988954E0
6.352993547E0;9.391549826E-1;5.424079895E-1;1.328958988E0
6.357785641E0;1.156517982E0;4.246430099E-1;1.336063981E0
6.362577641E0;1.330402017E0;3.063299954E-1;1.293105006E0
6.367369870E0;1.487105012E0;1.899539977E-1;1.204851031E0
6.372161872E0;1.679106951E0;7.105000317E-2;1.121520042E0
6.376953947E0;1.899037004E0;-2.387000062E-2;1.059849024E0
6.381745949E0;2.077718019E0;-1.542659998E-1;1.043638945E0
6.386537949E0;2.191498041E0;-2.674640119E-1;1.034536958E0
6.391330178E0;2.276530027E0;-2.969070077E-1;1.015884995E0
6.396122185E0;2.307293892E0;-3.214919865E-1;1.133581042E0
6.400914260E0;2.243515968E0;-2.748340070E-1;1.268025041E0
6.405706262E0;2.178565979E0;-2.719599903E-1;1.510220051E0
6.410498490E0;2.106838942E0;-2.967300117E-1;1.740331054E0
6.415290492E0;2.037851095E0;-2.822940052E-1;1.992349029E0
6.420082562E0;2.007277966E0;-2.648259997E-1;2.103569031E0
6.424874564E0;1.842767954E0;-1.295969933E-1;2.028543949E0
6.429666793E0;1.657142043E0;1.270799991E-2;1.999626040E0
6.434458795E0;1.481600046E0;5.894999951E-2;1.988127947E0
6.439250870E0;1.440009952E0;4.043560028E-1;1.996494055E0
6.444042872E0;1.148643970E0;5.053300261E-1;1.637310028E0
6.448835101E0;1.190163970E0;4.963299930E-1;1.415217996E0
6.453627103E0;1.265385985E0;5.743309855E-1;1.258201003E0
6.458419178E0;9.091989994E-1;8.447309732E-1;1.261791945E0
6.463211180E0;6.456220150E-1;1.185214996E0;1.303987026E0
6.468003409E0;3.166080117E-1;1.318495035E0;1.253002048E0
6.472795406E0;-3.719599918E-2;1.417466044E0;1.230816960E0
6.477587480E0;-3.371680081E-1;1.468227029E0;1.242156982E0
6.482379482E0;-5.505869985E-1;1.547405958E0;1.246423006E0
6.487171725E0;-7.402970195E-1;1.631345987E0;1.200520992E0
6.491963727E0;-8.993989825E-1;1.620265961E0;1.118625045E0
6.496755807E0;-9.495909810E-1;1.593660951E0;8.977169991E-1
6.501547809E0;-8.654239774E-1;1.590726972E0;7.698839903E-1
6.506340038E0;-7.235670090E-1;1.516314983E0;5.936620235E-1
6.511132040E0;-5.712239742E-1;1.333011031E0;4.836060107E-1
6.515924040E0;-5.533120036E-1;1.246948957E0;4.969500005E-1
6.520716115E0;-6.142960191E-1;1.145867944E0;6.526970267E-1
6.525508131E0;-8.207979798E-1;1.089123011E0;7.881370187E-1
6.530300360E0;-9.569630027E-1;9.283130169E-1;1.008556008E0
6.535092362E0;-1.011332989E0;6.947060227E-1;1.333140969E0
6.539884437E0;-1.051710010E0;4.767250121E-1;1.666268945E0
6.544676439E0;-1.061517000E0;2.236109972E-1;1.933905005E0
6.549468682E0;-1.042781949E0;-1.294880062E-1;2.216363907E0
6.554260684E0;-9.549360275E-1;-5.701599717E-1;2.493807077E0
6.559052759E0;-8.988149762E-1;-8.885279894E-1;2.766506910E0
6.563844761E0;-7.717850208E-1;-1.224354982E0;2.893502951E0
6.568636990E0;-5.713099837E-1;-1.707512975E0;2.930005074E0
6.573429006E0;-5.102170110E-1;-1.967643023E0;2.890558004E0
6.578221081E0;-3.942880034E-1;-2.120379925E0;2.780109882E0
6.583013083E0;-4.416159987E-1;-2.206654072E0;2.510153055E0
6.587805312E0;-6.781039834E-1;-2.252223015E0;2.094229937E0
6.592597314E0;-4.795050025E-1;-2.344682932E0;1.935276985E0
6.597389389E0;-3.127560019E-1;-2.253153086E0;1.822985053E0
6.602181386E0;-4.105460048E-1;-2.276444912E0;1.282912970E0
6.606973615E0;-5.923939943E-1;-2.155832052E0;6.620699763E-1
6.611765617E0;-6.048319936E-1;-1.846884966E0;1.690990031E-1
6.616557687E0;-7.949699759E-1;-1.737133980E0;-3.256959915E-1
6.621349689E0;-8.330180049E-1;-1.651278973E0;-1.064210057E0
6.626141689E0;-8.759300113E-1;-1.330348969E0;-1.517243028E0
6.630933917E0;-1.093992949E0;-1.006340981E0;-1.524711967E0
6.635725919E0;-1.348503947E0;-1.073281050E0;-1.791924000E0
6.640517994E0;-1.554190040E0;-9.675549865E-1;-2.097624063E0
6.645309982E0;-1.668913960E0;-7.239959836E-1;-2.310317993E0
6.650102211E0;-1.841439962E0;-5.408639908E-1;-2.415735960E0
6.654894213E0;-2.009427071E0;-3.943369985E-1;-2.581450939E0
6.659686293E0;-2.198285103E0;-3.229120076E-1;-2.853030920E0
6.664478295E0;-2.259352922E0;-2.155990005E-1;-2.893145084E0
6.669270295E0;-2.281426907E0;-4.104899988E-2;-2.869440079E0
6.674062524E0;-2.302537918E0;-1.485900022E-2;-2.769942045E0
6.678854526E0;-2.387413979E0;1.138999965E-2;-2.539566994E0
6.683646615E0;-2.503087044E0;1.501329988E-1;-2.257214069E0
6.688438617E0;-2.692354918E0;3.966580033E-1;-1.932716012E0
6.693230846E0;-2.602077961E0;2.943820059E-1;-1.795763016E0
6.698022862E0;-2.338445902E0;1.595109999E-1;-1.405727983E0
6.702814937E0;-2.095556974E0;1.084610000E-1;-9.443039894E-1
6.707606939E0;-1.888988018E0;-7.522799820E-2;-8.231739998E-1
6.712399167E0;-1.639652014E0;-1.359760016E-1;-6.064140201E-1
6.717191169E0;-1.400514007E0;-2.082439959E-1;-3.609249890E-1
6.721983244E0;-1.176367998E0;-3.853659928E-1;-9.150400013E-2
6.726775246E0;-9.910230041E-1;-5.816890001E-1;5.113900080E-2
6.731567246E0;-7.111359835E-1;-8.282920122E-1;1.436959952E-1
6.736359461E0;-3.611010015E-1;-9.892449975E-1;1.887560040E-1
6.741151463E0;-1.751999930E-2;-1.222095966E0;2.436500043E-1
6.745943552E0;2.192330062E-1;-1.383366942E0;2.940379977E-1
6.750735554E0;3.922010064E-1;-1.504510999E0;2.945129871E-1
6.755527783E0;5.182060003E-1;-1.540704012E0;2.596000135E-1
6.760319776E0;6.000559926E-1;-1.542651057E0;1.294910014E-1
6.765111851E0;6.668350101E-1;-1.570335031E0;-7.427799702E-2
6.769903853E0;5.118169785E-1;-1.523427010E0;-9.566400200E-2
6.774696067E0;3.266760111E-1;-1.380784988E0;6.780300289E-2
6.779488069E0;2.870250046E-1;-1.305052996E0;4.162690043E-1
6.784280055E0;2.219099924E-2;-1.217947960E0;1.453710049E-1
6.789072130E0;-2.918109894E-1;-1.095335960E0;-1.848260015E-1
6.793864132E0;-1.301469952E-1;-1.021821022E0;-5.409640074E-1
6.798656360E0;-2.836489975E-1;-5.142800212E-1;-5.160909891E-1
6.803448362E0;-2.930209935E-1;-3.201430142E-1;-8.570700288E-1
6.808240437E0;-5.036879778E-1;-3.447619975E-1;-1.760167003E0
6.813032439E0;-7.592939734E-1;-7.092499733E-2;-2.110038042E0
6.817824439E0;-5.739539862E-1;2.053119987E-1;-2.071172953E0
6.822616673E0;-2.498230040E-1;-5.893800035E-2;-2.202738047E0
6.827408675E0;-1.928019971E-1;-1.381680071E-1;-2.149930954E0
6.832200750E0;-3.828319907E-1;-1.349500008E-2;-2.092369080E0
6.836992751E0;-3.550660014E-1;-2.042900026E-2;-2.195221901E0
6.841784980E0;-7.865179777E-1;-1.264999993E-2;-2.480182886E0
6.846576982E0;-9.831169844E-1;1.020300016E-2;-2.645627022E0
6.851369057E0;-9.274790287E-1;1.699730009E-1;-2.631709099E0
6.856161059E0;-8.775789738E-1;1.526509970E-1;-2.579677105E0
6.860953298E0;-8.794140220E-1;3.238499910E-2;-2.597193003E0
6.865745300E0;-1.069587946E0;-8.752200007E-2;-2.727422953E0
6.870537375E0;-1.052940011E0;-5.313299969E-2;-2.731138945E0
6.875329391E0;-6.989259720E-1;5.199100077E-2;-2.352076054E0
6.880121391E0;-7.935280204E-1;7.925099880E-2;-2.588530064E0
6.884913619E0;-8.564680219E-1;9.805999696E-2;-2.684082031E0
6.889705607E0;-6.080229878E-1;3.455010056E-1;-2.504610062E0
6.894497607E0;-8.260930181E-1;5.961329937E-1;-2.586370945E0
6.899289667E0;-9.477379918E-1;8.093829751E-1;-2.666052103E0
6.904081669E0;-1.097355008E0;1.091285944E0;-2.645687103E0
6.908873898E0;-1.203153968E0;1.365025997E0;-2.437068939E0
6.913665896E0;-1.270581007E0;1.488031983E0;-2.104595900E0
6.918457896E0;-1.362097025E0;1.486678958E0;-1.844589949E0
6.923249971E0;-1.327738047E0;1.532876968E0;-1.498798013E0
6.928041973E0;-1.323218942E0;1.537224054E0;-1.244184971E0
6.932834202E0;-1.386687040E0;1.540014029E0;-1.140514970E0
6.937626285E0;-1.310469031E0;1.643797040E0;-1.015223026E0
6.942418285E0;-1.385360956E0;1.723703027E0;-9.928659797E-1
6.947210285E0;-1.391239047E0;1.682857990E0;-6.882889867E-1
6.952002514E0;-1.314313054E0;1.616819978E0;-4.126240015E-1
6.956794516E0;-1.169631958E0;1.565819979E0;-2.446900010E-1
6.961586591E0;-1.102712989E0;1.434191942E0;-4.090899974E-2
6.966378588E0;-9.582329988E-1;1.212739944E0;1.244240031E-1
6.971170816E0;-9.413269758E-1;1.099828005E0;2.848500013E-1
6.975962818E0;-7.983719707E-1;9.137849808E-1;5.983300209E-1
6.980754893E0;-5.472620130E-1;7.184380293E-1;6.988760233E-1
6.985546895E0;-5.104770064E-1;5.094540119E-1;7.754439712E-1
6.990338915E0;-2.818720043E-1;4.326519966E-1;8.257970214E-1
6.995131144E0;1.468520015E-1;3.991709948E-1;8.405770063E-1
6.999923146E0;3.174799979E-1;2.848930061E-1;8.602309823E-1
7.004715146E0;4.896880090E-1;8.497100323E-2;9.732490182E-1
7.009507221E0;5.741879940E-1;-4.086299986E-2;1.146093011E0
7.014299223E0;5.094209909E-1;-5.743499845E-2;1.378857017E0
7.019091452E0;4.220080078E-1;-6.809200346E-2;1.607015967E0
7.023883454E0;2.641299963E-1;-6.590999663E-2;1.799492002E0
7.028675514E0;1.457650065E-1;-6.062399969E-2;1.968307972E0
7.033467516E0;-1.444299985E-2;-1.097019985E-1;2.238533974E0
7.038259745E0;-3.761500120E-2;-6.046200171E-2;2.523602962E0
7.043051733E0;-2.040230036E-1;4.125599936E-2;2.682352066E0
7.047843733E0;-4.443710148E-1;9.457500279E-2;2.777127981E0
7.052635808E0;-6.226450205E-1;2.623429894E-1;2.800798893E0
7.057427810E0;-8.180109859E-1;4.489130080E-1;2.741389990E0
7.062220038E0;-9.967539907E-1;6.736029983E-1;2.620390892E0
7.067012025E0;-1.106219053E0;9.654440284E-1;2.425770998E0
7.071804100E0;-1.198873043E0;1.176386952E0;2.241221905E0
7.076596102E0;-1.315423012E0;1.366639018E0;2.085814953E0
7.081388088E0;-1.398486018E0;1.558287978E0;1.973803043E0
7.086180088E0;-1.422054052E0;1.720780969E0;1.830860972E0
7.090972317E0;-1.343183994E0;1.833003998E0;1.702393055E0
7.095764319E0;-1.207378030E0;1.914734006E0;1.652879953E0
7.100556394E0;-1.081635952E0;1.908993959E0;1.651067972E0
7.105348386E0;-9.750109911E-1;1.866026998E0;1.603513956E0
7.110140615E0;-7.168670297E-1;1.695122957E0;1.749483943E0
7.114932617E0;-4.394370019E-1;1.430027008E0;2.345171928E0
7.119724692E0;-4.145160019E-1;1.276234031E0;2.600728035E0
7.124516694E0;-3.186469972E-1;1.118522048E0;2.616749048E0
7.129308923E0;-7.214199752E-2;8.416810036E-1;2.505768061E0
7.134100925E0;1.750060022E-1;7.137939930E-1;2.260502100E0
7.138893000E0;4.037030041E-1;6.421129704E-1;2.196818113E0
7.143684998E0;3.957990110E-1;5.602239966E-1;2.194858074E0
7.148476998E0;7.110090256E-1;3.148449957E-1;2.259489059E0
7.153268998E0;9.776899815E-1;5.498600006E-2;2.452874899E0
7.158061226E0;1.066782951E0;-4.346680045E-1;2.482835054E0
7.162853228E0;1.373167038E0;-8.999900222E-1;2.734778881E0
7.167645303E0;1.528123021E0;-1.413413048E0;2.852124929E0
7.172437305E0;1.602095962E0;-1.686928988E0;2.947745085E0
7.177229534E0;1.713009953E0;-1.903395057E0;2.906867981E0
7.182021536E0;1.729519010E0;-2.254504919E0;3.035960913E0
7.186813611E0;1.742395997E0;-2.463274002E0;2.952164888E0
7.191605613E0;1.708482981E0;-2.671423912E0;2.691531897E0
7.196397823E0;1.562823057E0;-2.699074984E0;2.419222116E0
7.201189825E0;1.563285947E0;-2.649844885E0;2.039518118E0
7.205981839E0;1.430093050E0;-2.591943026E0;1.719876051E0
7.210773839E0;1.237833023E0;-2.508730888E0;1.429144025E0
7.215565914E0;1.077126026E0;-2.333676100E0;1.191447020E0
7.220357916E0;9.499480128E-1;-2.215275049E0;8.033469915E-1
7.225150145E0;8.090919852E-1;-2.096442938E0;4.492030144E-1
7.229942147E0;6.163709760E-1;-1.884471059E0;-4.560200125E-2
7.234734237E0;4.751389921E-1;-1.663295031E0;-4.775800109E-1
7.239526239E0;3.593479991E-1;-1.404677033E0;-8.753610253E-1
7.244318476E0;2.349810004E-1;-1.158756018E0;-1.339465022E0
7.249110478E0;1.564610004E-1;-9.821839929E-1;-1.824522972E0
7.253902478E0;4.764600098E-2;-8.372709751E-1;-2.366677046E0
7.258694478E0;5.272300169E-2;-6.180459857E-1;-2.746208906E0
7.263486553E0;3.333599865E-2;-5.990290046E-1;-2.903562069E0
7.268278555E0;-9.531600028E-2;-5.067740083E-1;-3.408577919E0
7.273070784E0;-1.881240010E-1;-2.516410053E-1;-3.624541998E0
7.277862786E0;-1.369680017E-1;-1.803459972E-1;-3.805445910E0
7.282654861E0;-1.040380001E-1;-2.828789949E-1;-3.829391956E0
7.287446863E0;5.098899826E-2;-3.003140092E-1;-3.775362015E0
7.292238863E0;1.765909940E-1;-2.852799892E-1;-3.662434101E0
7.297031092E0;3.230499923E-1;-3.646749854E-1;-3.449903011E0
7.301823094E0;3.348959982E-1;-4.046530128E-1;-3.173625946E0
7.306615169E0;4.151670039E-1;-3.123460114E-1;-2.931555986E0
7.311407166E0;5.731830001E-1;-4.279220104E-1;-2.761903048E0
7.316199166E0;6.300550103E-1;-4.863390028E-1;-2.573565006E0
7.320991395E0;7.725819945E-1;-4.591419995E-1;-2.361668110E0
7.325783397E0;9.607509971E-1;-4.571659863E-1;-2.134732962E0
7.330575471E0;1.035707951E0;-5.037599802E-1;-1.920089006E0
7.335367479E0;1.233430028E0;-5.775169730E-1;-1.734302044E0
7.340159707E0;1.372269988E0;-5.857779980E-1;-1.629881024E0
7.344951709E0;1.479225039E0;-6.006619930E-1;-1.544585943E0
7.349743723E0;1.554787040E0;-6.318359971E-1;-1.404224038E0
7.354535723E0;1.682160974E0;-6.577969790E-1;-1.316439986E0
7.359327798E0;1.765959978E0;-6.901350021E-1;-1.197584033E0
7.364119800E0;1.768623948E0;-7.171750069E-1;-1.090765953E0
7.368912029E0;1.711912990E0;-7.555180192E-1;-8.332449794E-1
7.373704031E0;1.721747041E0;-8.387669921E-1;-7.217460275E-1
7.378496106E0;1.667083025E0;-8.597350121E-1;-4.545449913E-1
7.383288108E0;1.631348014E0;-9.047909975E-1;-2.470330000E-1
7.388080108E0;1.549733043E0;-9.836180210E-1;-5.606200173E-2
7.392872337E0;1.489323974E0;-1.048766017E0;1.160620004E-1
7.397664339E0;1.478937984E0;-1.088744044E0;2.957659960E-1
7.402456414E0;1.380054951E0;-1.151739001E0;4.974260032E-1
7.407248416E0;1.411620975E0;-1.075992942E0;5.107529759E-1
7.412040401E0;1.478001952E0;-1.026739955E0;5.655760169E-1
7.416832630E0;1.495491982E0;-9.966660142E-1;4.439550042E-1
7.421624632E0;1.481130958E0;-9.906989932E-1;2.631880045E-1
7.426416632E0;1.445047021E0;-8.726249933E-1;1.166199967E-1
7.431208707E0;1.192296028E0;-6.595299840E-1;-6.773900241E-2
7.436000709E0;8.718090057E-1;-4.304040074E-1;-2.708260119E-1
7.440792937E0;5.937889814E-1;-2.328950018E-1;-4.520139992E-1
7.445584939E0;4.461260140E-1;-1.141249985E-1;-5.467140079E-1
7.450376948E0;4.351840019E-1;-8.813200146E-2;-7.416260242E-1
7.455169023E0;2.889569998E-1;-2.812799998E-2;-1.063215017E0
7.459961025E0;1.398999942E-3;3.003759980E-1;-1.130936980E0
7.464753025E0;2.562899888E-1;2.645739913E-1;-1.081087947E0
7.469545254E0;5.214679837E-1;1.415009946E-1;-1.174386978E0
7.474337261E0;5.622850060E-1;-5.265099928E-2;-1.358425021E0
7.479129336E0;5.342289805E-1;-2.597399987E-2;-1.226482987E0
7.483921338E0;3.649809957E-1;2.037799954E-1;-1.360087037E0
7.488713338E0;1.412910074E-1;3.339140117E-1;-1.685003042E0
7.493505567E0;1.314499974E-2;3.878070116E-1;-2.014731884E0
7.498297569E0;1.069829985E-1;5.205559731E-1;-1.846812010E0
7.503089644E0;1.043369994E-1;5.640699863E-1;-1.947307944E0
7.507881646E0;1.892119944E-1;5.167729855E-1;-1.818343043E0
7.512673875E0;1.756349951E-1;4.996730089E-1;-1.747109056E0
7.517465877E0;7.656499743E-2;5.020179749E-1;-1.855625987E0
7.522257877E0;6.684199721E-2;5.024099946E-1;-1.868589997E0
7.527049882E0;6.977400184E-2;5.891489983E-1;-1.833809972E0
7.531841957E0;1.425540000E-1;6.880419850E-1;-1.758437037E0
7.536633959E0;2.205470055E-1;7.745890021E-1;-1.812338948E0
7.541426196E0;2.401160002E-1;9.008209705E-1;-1.839908957E0
7.546218198E0;2.635529935E-1;1.023779988E0;-1.759773970E0
7.551010264E0;2.071480006E-1;1.124511957E0;-1.643826962E0
7.555802189E0;1.064580008E-1;1.222231984E0;-1.592576027E0
7.560594264E0;-2.185899951E-2;1.353109956E0;-1.539018989E0
7.565386500E0;-1.612219959E-1;1.491227984E0;-1.387452006E0
7.570178502E0;-2.500930130E-1;1.608304024E0;-1.207288980E0
7.574970502E0;-3.247640133E-1;1.694689989E0;-1.108597040E0
7.579762506E0;-4.112769961E-1;1.771942019E0;-1.031568050E0
7.584554581E0;-6.068620086E-1;1.861657977E0;-9.093260169E-1
7.589346583E0;-8.179349899E-1;1.916121960E0;-7.754549980E-1
7.594138812E0;-9.993029833E-1;1.990412951E0;-5.987870097E-1
7.598930814E0;-1.120215058E0;2.048403025E0;-5.013200045E-1
7.603722889E0;-1.171676040E0;2.073625088E0;-3.944419920E-1
7.608514891E0;-1.237504959E0;2.071185112E0;-2.710379958E-1
7.613306891E0;-1.177173018E0;1.960355997E0;-1.120060012E-1
7.618098907E0;-1.048632979E0;1.815356016E0;-4.416799918E-2
7.622891136E0;-8.736640215E-1;1.708070040E0;6.717000157E-3
7.627683152E0;-7.213320136E-1;1.572056055E0;1.888969988E-1
7.632475152E0;-6.129180193E-1;1.445677996E0;4.975320101E-1
7.637267227E0;-4.338690042E-1;1.273483038E0;8.657360077E-1
7.642059229E0;-3.487550020E-1;1.019284964E0;1.185732961E0
7.646851457E0;-1.065939963E-1;7.472079992E-1;1.481659055E0
7.651643459E0;1.682620049E-1;3.686529994E-1;1.925884962E0
7.656435459E0;4.881210029E-1;-1.191359982E-1;2.258009911E0
7.661227534E0;8.774250150E-1;-5.322459936E-1;2.418200970E0
7.666019536E0;1.211961031E0;-7.945640087E-1;2.511862993E0
7.670811536E0;1.587622046E0;-1.047505975E0;2.601267099E0
7.675603765E0;1.853850961E0;-1.183910012E0;2.672122002E0
7.680395839E0;1.963052034E0;-1.180075049E0;2.743597984E0
7.685187762E0;1.798444033E0;-1.108006954E0;2.782130003E0
7.689979837E0;1.666952968E0;-1.061012983E0;2.620050907E0
7.694771839E0;1.721817970E0;-9.548079967E-1;2.614008904E0
7.699564068E0;1.528951049E0;-7.003070116E-1;2.613169909E0
7.704356070E0;1.127920032E0;-4.262979925E-1;2.514647961E0
7.709148070E0;6.440439820E-1;-1.302520037E-1;2.045353889E0
7.713940070E0;2.897120118E-1;2.102590054E-1;1.793856025E0
7.718732150E0;1.128709987E-1;6.037520170E-1;1.808300972E0
7.723524152E0;-3.223780096E-1;9.979150295E-1;1.937561035E0
7.728316381E0;-7.886340022E-1;1.289451003E0;2.052439928E0
7.733108378E0;-1.065508962E0;1.392608047E0;2.133656025E0
7.737900378E0;-1.237234950E0;1.575821042E0;2.224289894E0
7.742692438E0;-1.335482955E0;1.772315979E0;2.233356953E0
7.747484440E0;-1.370203018E0;1.870038033E0;2.201486111E0
7.752276668E0;-1.365218043E0;1.941256046E0;2.054308891E0
7.757068665E0;-1.054664016E0;1.687216997E0;1.992789984E0
7.761860665E0;-9.751060009E-1;1.572623014E0;1.866052032E0
7.766652740E0;-7.891439795E-1;1.504495025E0;1.820060015E0
7.771444738E0;-6.081399918E-1;1.176491022E0;1.795084953E0
7.776236967E0;-4.352709949E-1;9.362059832E-1;1.950914979E0
7.781028738E0;-1.409330070E-1;4.626170099E-1;2.144210100E0
7.785820967E0;-1.961899921E-2;5.443000048E-2;2.138088942E0
7.790612969E0;2.334679961E-1;-3.175460100E-1;2.353985071E0
7.795405063E0;4.487279952E-1;-6.684389710E-1;2.746560097E0
7.800197065E0;5.152559876E-1;-9.992290139E-1;3.213196993E0
7.804989065E0;7.411630154E-1;-1.430282950E0;3.641612053E0
7.809781079E0;9.378169775E-1;-2.008632898E0;4.056054115E0
7.814573308E0;9.020850062E-1;-2.294878006E0;4.164646149E0
7.819365372E0;1.088091969E0;-2.535818100E0;4.305106163E0
7.824157295E0;1.241641045E0;-2.775151014E0;4.542247772E0
7.828949370E0;1.204108953E0;-2.989917994E0;4.581864834E0
7.833741357E0;1.006651044E0;-3.034887075E0;4.285274982E0
7.838533586E0;8.398219943E-1;-3.013576031E0;3.726677895E0
7.843325588E0;6.882200241E-1;-2.937985897E0;3.052000999E0
7.848117588E0;5.806480050E-1;-2.790867090E0;2.330570936E0
7.852909663E0;4.697940052E-1;-2.587202072E0;1.820855021E0
7.857701660E0;2.425809950E-1;-2.454922915E0;1.137320042E0
7.862493888E0;-8.592700213E-2;-2.121392965E0;7.947639823E-1
7.867285890E0;-3.711299896E-1;-1.925387979E0;2.495760024E-1
7.872077905E0;-5.253210068E-1;-1.795974016E0;-8.907599747E-2
7.876869980E0;-9.732829928E-1;-1.546300054E0;-3.075389862E-1
7.881661982E0;-1.323179960E0;-1.431455970E0;-6.119080186E-1
7.886453996E0;-1.491394043E0;-1.610277057E0;-1.081572056E0
7.891245996E0;-1.698858976E0;-1.640025020E0;-1.702306986E0
7.896038225E0;-1.981402040E0;-1.234632969E0;-2.510056973E0
7.900830227E0;-1.961948037E0;-8.735349774E-1;-2.856204033E0
7.905622227E0;-1.931184053E0;-7.017520070E-1;-2.961208105E0
7.910414316E0;-2.053299904E0;-6.350650191E-1;-3.040546894E0
7.915206318E0;-2.230545044E0;-5.990660191E-1;-3.084672928E0
7.919998318E0;-2.371512890E0;-6.081969738E-1;-3.158283949E0
7.924790542E0;-2.554934978E0;-4.590379894E-1;-3.084220886E0
7.929582544E0;-2.714257002E0;-3.382849991E-1;-3.070765018E0
7.934374619E0;-2.787298918E0;-2.194209993E-1;-3.070095062E0
7.939166621E0;-2.853271961E0;-7.817299664E-2;-3.027228117E0
7.943958621E0;-2.828876019E0;6.897000223E-2;-2.966145992E0
7.948750621E0;-2.814718962E0;1.407089978E-1;-2.877301931E0
7.953542850E0;-2.796437979E0;2.232529968E-1;-2.662540913E0
7.958334852E0;-2.747621059E0;2.398059964E-1;-2.477448940E0
7.963126852E0;-2.716954947E0;2.547279894E-1;-2.218949080E0
7.967918927E0;-2.648963928E0;2.750599980E-1;-1.954007030E0
7.972710929E0;-2.543912888E0;1.835719943E-1;-1.687419057E0
7.977502929E0;-2.389976025E0;1.040280014E-1;-1.485986948E0
7.982295157E0;-2.268282890E0;-9.236999787E-3;-1.229972959E0
7.987087159E0;-2.166692972E0;-8.984600008E-2;-9.694809914E-1
7.991879159E0;-2.042278051E0;-1.528339982E-1;-6.683830023E-1
7.996671234E0;-1.868942022E0;-2.633920014E-1;-4.414390028E-1
8.001463217E0;-1.685196996E0;-3.860689998E-1;-2.861019969E-1
8.006255217E0;-1.486222029E0;-4.950810075E-1;-1.471640021E-1
8.011047432E0;-1.283947945E0;-6.196600199E-1;-6.040899828E-2
8.015839434E0;-1.099776983E0;-7.337819934E-1;-4.971899837E-2
8.020631434E0;-9.048569798E-1;-8.091689944E-1;-3.357899934E-2
8.025423514E0;-7.323690057E-1;-9.510629773E-1;-9.586200118E-2
8.030215516E0;-4.060510099E-1;-1.135354042E0;-2.173780054E-1
8.035007516E0;-1.458290070E-1;-1.252246022E0;-4.172270000E-1
8.039799516E0;1.036219969E-1;-1.337746024E0;-6.738590002E-1
8.044591745E0;3.328529894E-1;-1.375097036E0;-9.585570097E-1
8.049383762E0;4.325500131E-1;-1.371399999E0;-1.223526001E0
8.054175762E0;4.751090109E-1;-1.326694965E0;-1.435282946E0
8.058967837E0;4.515140057E-1;-1.276700020E0;-1.610695958E0
8.063759839E0;3.742470145E-1;-1.192752004E0;-1.733029008E0
8.068551839E0;2.529110014E-1;-1.032282948E0;-1.863960028E0
8.073344068E0;9.481400251E-2;-8.732709885E-1;-1.851394057E0
8.078136065E0;9.831099957E-2;-9.082499743E-1;-2.166269064E0
8.082928065E0;-6.312700361E-2;-7.999259830E-1;-2.437952042E0
8.087720055E0;-2.096990049E-1;-6.867060065E-1;-2.606735945E0
8.092512130E0;-2.460629940E-1;-5.464199781E-1;-2.754159927E0
8.097304132E0;-2.348240018E-1;-4.192450047E-1;-2.782174110E0
8.102096132E0;-2.457779944E-1;-4.965279996E-1;-3.047554016E0
8.106888361E0;-4.024550021E-1;-4.069780111E-1;-3.198487043E0
8.111680363E0;-4.603590071E-1;-2.390740067E-1;-3.203905106E0
8.116472423E0;-5.489050150E-1;-4.549499974E-2;-3.145204067E0
8.121264425E0;-7.473689914E-1;1.092419997E-1;-3.182820082E0
8.126056439E0;-9.121950269E-1;2.156690061E-1;-3.027065992E0
8.130848668E0;-9.551990032E-1;2.424560040E-1;-2.840660095E0
8.135640670E0;-1.053740978E0;2.924610078E-1;-2.755247116E0
8.140432670E0;-1.094848990E0;4.660010040E-1;-2.737272978E0
8.145224670E0;-1.004436970E0;6.959819794E-1;-2.621505976E0
8.150016670E0;-9.910690188E-1;8.028290272E-1;-2.551573038E0
8.154808750E0;-1.039962053E0;8.080120087E-1;-2.505938053E0
8.159600752E0;-1.115164995E0;8.856160045E-1;-2.377470016E0
8.164392752E0;-1.149906039E0;1.028578043E0;-2.230017900E0
8.169184981E0;-1.211034060E0;1.150997043E0;-1.960731983E0
8.173976983E0;-1.129649997E0;1.159386039E0;-1.883137941E0
8.178768983E0;-9.898480177E-1;8.807060122E-1;-1.624186039E0
8.183560983E0;-1.039576054E0;1.082324028E0;-1.920408010E0
8.188353058E0;-9.198259711E-1;1.237179995E0;-1.647052050E0
8.193145284E0;-5.986040235E-1;1.169096947E0;-1.386078000E0
8.197937055E0;-3.291409910E-1;9.666510224E-1;-1.309911966E0
8.202729284E0;-3.920420110E-1;1.173077941E0;-1.645439029E0
8.207521286E0;-1.487150043E-1;7.547789812E-1;-8.019059896E-1
8.212313286E0;6.062100083E-2;4.097090065E-1;-1.237234950E0
8.217105361E0;-2.539539933E-1;6.891570091E-1;-8.947269917E-1
8.221897363E0;-3.809939921E-1;8.136770129E-1;-2.820860147E-1
8.226689363E0;-2.967169881E-1;7.188010216E-1;3.820500150E-2
8.231481602E0;-2.335290015E-1;4.458119869E-1;6.621950269E-1
8.236273604E0;-3.211619854E-1;1.750600040E-1;6.110820174E-1
8.241065604E0;-5.458949804E-1;2.668260038E-1;8.858630061E-1
8.245857604E0;-5.547909737E-1;9.738399833E-2;1.412124991E0
8.250649679E0;-5.769209862E-1;-9.539999883E-4;1.871672988E0
8.255441681E0;-5.226320028E-1;-1.481979936E-1;2.224766016E0
8.260233666E0;-3.899289966E-1;-3.045139909E-1;2.317610025E0
8.265025894E0;-3.007239997E-1;-5.106089711E-1;2.463829994E0
8.269817896E0;-1.592829973E-1;-6.253319979E-1;2.469522953E0
8.274609882E0;5.422699824E-2;-7.016119957E-1;2.442433119E0
8.279401957E0;1.854310036E-1;-7.013589740E-1;2.339421034E0
8.284193959E0;2.735840082E-1;-6.843910217E-1;2.304060936E0
8.288985949E0;3.523359895E-1;-6.317070127E-1;2.209482908E0
8.293777949E0;4.659090042E-1;-5.705050230E-1;2.076358080E0
8.298569939E0;5.745519996E-1;-4.427550137E-1;1.836230040E0
8.303362168E0;6.595489979E-1;-3.937749863E-1;1.713950038E0
8.308154247E0;6.903809905E-1;-1.678979993E-1;1.544391036E0
8.312946170E0;4.879550040E-1;2.987900078E-1;1.239117026E0
8.317738245E0;3.825060129E-1;7.660499811E-1;1.561527014E0
8.322530247E0;5.149739981E-1;4.391799867E-1;1.352362990E0
8.327322247E0;1.114690006E-1;9.069740176E-1;8.778979778E-1
8.332114476E0;-4.409799874E-1;1.761904955E0;5.978429914E-1
8.336906464E0;-6.213409901E-1;2.120867968E0;2.521298885E0
8.341698464E0;-2.809149921E-1;1.441519976E0;1.292647004E0
8.346490539E0;-4.488230050E-1;1.135103941E0;8.870319724E-1
8.351282469E0;-1.061743021E0;1.740509033E0;9.934800267E-1
8.356074544E0;-1.679674983E0;2.759236097E0;1.073465943E0
8.360866546E0;-1.273782969E0;2.137113094E0;4.004943848E0
8.365658546E0;-7.027209997E-1;1.099248052E0;2.080986977E0
8.370450775E0;-9.281610250E-1;1.013864994E0;1.834833026E0
8.375242772E0;-8.718910217E-1;1.498245001E0;2.732391119E0
8.380034772E0;-5.802320242E-1;1.245293021E0;2.707614899E0
8.384826847E0;-1.398909986E-1;7.556710243E-1;2.950237989E0
8.389618849E0;3.931150138E-1;1.912720054E-1;3.922692060E0
8.394410849E0;6.128709912E-1;-4.883239865E-1;3.261857033E0
8.399203077E0;1.058424950E0;-7.136679888E-1;3.888632059E0
8.403994849E0;1.100916028E0;-1.433308959E0;3.988405943E0
8.408787077E0;1.774574995E0;-1.589503050E0;4.629183769E0
8.413579108E0;1.868517995E0;-2.169528961E0;4.487295151E0
8.418371183E0;1.802113056E0;-2.860323906E0;4.575445175E0
8.423163185E0;2.310818911E0;-2.686330080E0;4.357603073E0
8.427955189E0;2.237534046E0;-3.362190008E0;4.748530865E0
8.432747189E0;2.654051065E0;-3.380712986E0;4.465050220E0
8.437539418E0;2.858244896E0;-3.352684975E0;3.842470884E0
8.442331405E0;2.524919033E0;-3.802098036E0;3.383461952E0
8.447123405E0;2.806783915E0;-3.596606016E0;3.521332026E0
8.451915410E0;2.726736069E0;-3.435606956E0;3.028124094E0
8.456707485E0;2.452728987E0;-3.395447969E0;2.638791084E0
8.461499487E0;2.253864050E0;-3.289433002E0;2.353283882E0
8.466291487E0;2.118041992E0;-3.064598083E0;1.642318010E0
8.471083487E0;1.667258978E0;-3.055638075E0;5.822119713E-1
8.475875716E0;1.935245991E0;-2.205195904E0;1.094115973E0
8.480667747E0;1.641379952E0;-1.604377985E0;-7.387599945E-1
8.485459747E0;1.491171002E0;-1.343111992E0;-1.118160963E0
8.490251747E0;1.584205985E0;-1.261052966E0;2.333379984E-1
8.495043822E0;1.744627953E0;-1.355113983E0;-1.360320002E-1
8.499835824E0;1.587800980E0;-1.421828032E0;-8.211039901E-1
8.504627833E0;1.072707057E0;-1.167448997E0;-1.419597983E0
8.509419833E0;4.351789951E-1;-8.998730183E-1;-1.524839997E0
8.514212062E0;4.667599872E-2;-5.234169960E-1;-1.483770013E0
8.519004064E0;-4.592509866E-1;-2.482230067E-1;-1.459326982E0
8.523796064E0;-7.895209789E-1;4.988599941E-2;-1.707466960E0
8.528588069E0;-9.635570049E-1;2.425789982E-1;-1.840556979E0
8.533380144E0;-9.180679917E-1;3.714480102E-1;-1.856366992E0
8.538172146E0;-6.983850002E-1;2.964830101E-1;-1.927497983E0
8.542964151E0;-3.586210012E-1;1.309989989E-1;-2.044543028E0
8.547756151E0;-8.005800098E-2;4.238900170E-2;-2.118933916E0
8.552548380E0;1.610890031E-1;-6.909000129E-2;-2.262027025E0
8.557340386E0;3.579820096E-1;-1.662420034E-1;-2.405734062E0
8.562132386E0;6.739360094E-1;-2.753230035E-1;-2.583657026E0
8.566924382E0;9.789270163E-1;-4.849239886E-1;-3.066485882E0
8.571716382E0;1.219431043E0;-8.066059947E-1;-2.808178902E0
8.576508457E0;1.510409951E0;-1.039419055E0;-2.718333006E0
8.581300492E0;1.692803025E0;-1.142516017E0;-2.813683033E0
8.586092492E0;1.633208036E0;-1.182911992E0;-2.689656973E0
8.590884720E0;1.596232057E0;-1.335041046E0;-2.643173933E0
8.595676722E0;1.638998985E0;-1.402650952E0;-2.779524088E0
8.600468722E0;1.694852948E0;-1.476647973E0;-2.756371975E0
8.605260722E0;1.718217969E0;-1.473526001E0;-2.870505095E0
8.610052797E0;1.628054023E0;-1.470047951E0;-2.827389002E0
8.614844799E0;1.400807023E0;-1.349285007E0;-2.708322048E0
8.619636770E0;1.161434054E0;-1.243595958E0;-2.498748064E0
8.624428770E0;9.484810233E-1;-1.132032990E0;-2.380451918E0
8.629220770E0;8.410670161E-1;-1.070047975E0;-2.180927038E0
8.634012994E0;8.650810122E-1;-1.036455989E0;-1.950310946E0
8.638804996E0;8.045759797E-1;-9.767510295E-1;-1.827620029E0
8.643596996E0;6.513760090E-1;-8.484320045E-1;-1.714239001E0
8.648389071E0;-3.916670084E-1;-1.371261001E0;-1.585204005E0
8.653181073E0;-2.865119874E-1;-1.620954990E0;-1.720245004E0
8.657973068E0;2.528399974E-2;-7.730939984E-1;-1.747645020E0
8.662765068E0;1.383929998E-1;-3.486340046E-1;-1.317103028E0
8.667557297E0;2.267760038E-1;-1.151949987E-1;-1.149284959E0
8.672349237E0;2.497140020E-1;-4.921599850E-2;-1.694216013E0
8.677141237E0;1.085079983E-1;-7.053600252E-2;-2.385809898E0
8.681933228E0;1.039690003E-1;-9.614799917E-2;-1.848582029E0
8.686725228E0;5.168699846E-2;1.601199992E-2;-1.914391041E0
8.691517303E0;-6.619899720E-2;7.703600079E-2;-1.905833960E0
8.696309305E0;-2.021470070E-1;1.401299983E-1;-1.576418996E0
8.701101305E0;-3.088259995E-1;2.327490002E-1;-1.658411026E0
8.705893305E0;-4.617840052E-1;3.046799898E-1;-1.876572013E0
8.710685529E0;-4.637880027E-1;3.739979863E-1;-1.496101975E0
8.715477300E0;-4.254600108E-1;4.871490002E-1;-1.637094975E0
8.720269543E0;-5.128809810E-1;5.959259868E-1;-2.031431913E0
8.725061545E0;-4.207490087E-1;6.194099784E-1;-1.473080039E0
8.729853545E0;-3.605909944E-1;6.373080015E-1;-1.589630961E0
8.734645615E0;-3.951910138E-1;6.159960032E-1;-1.895166039E0
8.739437617E0;-2.883780003E-1;6.104829907E-1;-1.070989013E0
8.744229617E0;-1.897110045E-1;5.705720186E-1;-1.240124941E0
8.749021613E0;-1.238999963E-1;4.056769907E-1;-1.586361051E0
8.753813842E0;-2.713999944E-3;4.237639904E-1;-7.501080036E-1
8.758605834E0;9.823500365E-2;4.310230017E-1;-9.142450094E-1
8.763397834E0;1.593009979E-1;3.753759861E-1;-8.795469999E-1
8.768189834E0;4.469899833E-2;1.780260056E-1;-1.268636942E0
8.772981834E0;-1.276990026E-1;3.089210093E-1;-3.410939872E-1
8.777773908E0;1.689299941E-2;2.594740093E-1;-3.493930101E-1
8.782565910E0;8.250200003E-2;2.687039971E-1;-4.004819989E-1
8.787357887E0;1.005790010E-1;1.432900038E-2;-9.710919857E-1
8.792149887E0;-1.261070073E-1;5.392439961E-1;4.589600116E-2
8.796942130E0;2.141260058E-1;6.033869982E-1;4.582500085E-2
8.801734132E0;4.576860070E-1;3.290539980E-1;-9.092680216E-1
8.806526132E0;3.241499960E-1;6.791710258E-1;5.427000113E-3
8.811318137E0;5.842779875E-1;6.705369949E-1;6.447790265E-1
8.816110212E0;7.891380191E-1;5.319780111E-1;1.663720012E-1
8.820902214E0;8.001130223E-1;2.785870135E-1;-5.347359776E-1
8.825694213E0;6.651219726E-1;5.426610112E-1;4.877769947E-1
8.830486213E0;7.874879837E-1;4.932110012E-1;5.023549795E-1
8.835278214E0;7.825999856E-1;3.078219891E-1;3.947150111E-1
8.840070214E0;8.415459991E-1;1.280799955E-1;1.863439977E-1
8.844862443E0;9.673100114E-1;1.187200006E-2;5.929819942E-1
8.849654445E0;1.142462015E0;1.441619992E-1;5.927960277E-1
8.854446445E0;1.398219943E0;3.071970046E-1;9.351509809E-1
8.859238445E0;1.447579026E0;4.119819999E-1;1.110152960E0
8.864030520E0;1.292230010E0;6.155470014E-1;1.156244040E0
8.868822522E0;1.326961040E0;6.789540052E-1;1.169088960E0
8.873614583E0;1.646324992E0;8.579469919E-1;1.211146951E0
8.878406583E0;1.600528002E0;8.325210214E-1;1.361109018E0
8.883198583E0;1.077640057E0;6.603779793E-1;1.195073962E0
8.887990578E0;8.011440039E-1;4.856370091E-1;1.225273013E0
8.892782807E0;3.508949876E-1;6.257730126E-1;1.583564043E0
8.897574809E0;9.797699749E-2;9.386349916E-1;1.690956950E0
8.902366809E0;4.091399908E-2;1.127341032E0;1.989856005E0
8.907158809E0;-1.822129935E-1;1.307189941E0;2.006764889E0
8.911950884E0;-3.510589898E-1;1.391945004E0;2.055351019E0
8.916742886E0;-7.666540146E-1;1.549129963E0;1.628003001E0
8.921534886E0;-9.061650038E-1;1.812767029E0;1.651124001E0
8.926326886E0;-7.748230100E-1;1.900892019E0;1.617009044E0
8.931119101E0;-7.855330110E-1;2.045017958E0;1.237264037E0
8.935911103E0;-5.782499909E-1;2.130584955E0;1.564723015E0
8.940703103E0;-5.027359724E-1;2.119705915E0;1.311838031E0
8.945495103E0;-6.867849827E-1;2.345879078E0;1.137951970E0
8.950287103E0;-5.571119785E-1;2.400965929E0;1.536437988E0
8.955079103E0;-7.649949789E-1;2.443603992E0;1.158225060E0
8.959871178E0;-9.090449810E-1;2.261137962E0;1.579527974E0
8.964663180E0;-9.382640123E-1;2.013211012E0;2.060250998E0
8.969455185E0;-8.698620200E-1;1.677842975E0;1.798457980E0
8.974247185E0;-8.732730150E-1;1.621906042E0;2.199394941E0
8.979039185E0;-7.161489725E-1;1.373829007E0;2.772320032E0
8.983831204E0;-9.456300139E-1;1.529718041E0;2.686495066E0
8.988623433E0;-7.219460011E-1;1.407685995E0;3.383157969E0
8.993415435E0;-7.889959812E-1;1.347376943E0;3.636620998E0
8.998207430E0;-6.729260087E-1;1.234248042E0;3.398909092E0
9.002999430E0;-4.520170093E-1;1.078856945E0;3.119839907E0
9.007791420E0;-4.136280119E-1;9.282159805E-1;2.933083057E0
9.012583495E0;-4.467779994E-1;1.111323953E0;2.821593046E0
9.017375497E0;-1.683700085E-2;7.278980017E-1;2.833300114E0
9.022167507E0;-5.701500177E-2;5.823529959E-1;2.647423029E0
9.026959507E0;1.798409969E-1;3.249810040E-1;3.193069935E0
9.031751507E0;2.078199983E-1;2.889600024E-2;2.866466045E0
9.036543735E0;1.986069977E-1;-3.023020029E-1;3.250519991E0
9.041335737E0;3.484179974E-1;-4.117639959E-1;3.268343925E0
9.046127737E0;1.316519976E-1;-5.021939874E-1;2.877191067E0
9.050919737E0;8.919200301E-2;-7.303069830E-1;3.094719887E0
9.055711737E0;1.788969934E-1;-1.176180005E0;2.850825071E0
9.060503737E0;3.819290102E-1;-1.344766974E0;2.851865053E0
9.065295812E0;3.542670012E-1;-1.500306010E0;2.461028099E0
9.070087814E0;5.705599785E-1;-1.921054959E0;2.585741043E0
9.074879814E0;6.256170273E-1;-2.173986912E0;2.036447048E0
9.079671814E0;5.333439708E-1;-2.415868998E0;2.110258102E0
9.084464057E0;4.762580097E-1;-2.448925972E0;1.758581042E0
9.089255828E0;5.456960201E-1;-2.749092102E0;2.135241032E0
9.094047826E0;5.672199726E-1;-2.936101913E0;1.315515995E0
9.098840086E0;4.981980026E-1;-3.049865961E0;1.315130949E0
9.103632088E0;4.057799876E-1;-2.949553013E0;1.284448028E0
9.108424088E0;-7.701499760E-2;-2.676244020E0;5.409659743E-1
9.113216088E0;-6.072799861E-2;-2.605320930E0;1.387997985E0
9.118008163E0;-4.812229872E-1;-2.392981052E0;-2.780840099E-1
9.122800165E0;-4.169430137E-1;-2.196321964E0;7.285630107E-1
9.127592165E0;-5.441629887E-1;-2.451950073E0;-7.065999787E-3
9.132384165E0;-7.763969898E-1;-2.053100109E0;-6.963409781E-1
9.137176165E0;-8.367729783E-1;-2.119481087E0;-4.779340029E-1
9.141968165E0;-1.138882041E0;-1.718997002E0;-1.796278000E0
9.146760394E0;-1.175430059E0;-1.432471037E0;-1.402421951E0
9.151552400E0;-5.995339751E-1;-1.394510031E0;-1.484763980E0
9.156344400E0;-9.854390025E-1;-1.154744983E0;-3.182054996E0
9.161136400E0;-8.521540165E-1;-1.015316010E0;-1.875334978E0
9.165928400E0;-6.505540013E-1;-1.120794058E0;-2.091629982E0
9.170720400E0;-1.276658058E0;-7.239680290E-1;-3.033914089E0
9.175512475E0;-1.096868038E0;-8.301050067E-1;-1.583752036E0
9.180304477E0;-1.709117055E0;-4.016239941E-1;-3.963515997E0
9.185096477E0;-1.779764056E0;-8.792900294E-2;-3.404333115E0
9.189888458E0;-1.749336958E0;-3.572199866E-2;-3.008758068E0
9.194680458E0;-2.558815956E0;8.027579784E-1;-3.820750952E0
9.199472463E0;-2.269217968E0;8.151190281E-1;-1.750745058E0
9.204264463E0;-2.695146084E0;1.002102971E0;-3.837507963E0
9.209056692E0;-2.692974091E0;1.161548018E0;-2.771969080E0
9.213848704E0;-2.585572004E0;1.094913960E0;-2.395612955E0
9.218640704E0;-2.500973940E0;9.120600224E-1;-1.263412952E0
9.223432704E0;-2.728538990E0;1.246088982E0;-2.062638998E0
9.228224689E0;-2.414836884E0;1.158638954E0;-4.539409876E-1
9.233016764E0;-2.483433962E0;9.910050035E-1;-4.373889863E-1
9.237808766E0;-2.518312931E0;8.201990128E-1;-5.908579826E-1
9.242600766E0;-2.464169979E0;4.466229975E-1;-9.435070157E-1
9.247392766E0;-2.648999929E0;6.899269819E-1;-9.205070138E-1
9.252184766E0;-2.160134077E0;5.970100164E-1;4.906710088E-1
9.256976771E0;-1.905362964E0;3.652580082E-1;3.028700054E-1
9.261768771E0;-1.772621989E0;-2.037229985E-1;-7.203710079E-1
9.266560771E0;-1.877825975E0;-5.232890248E-1;-1.260056019E0
9.271353000E0;-1.516595006E0;-4.103249907E-1;-6.884509921E-1
9.276145002E0;-1.279428005E0;-5.670700073E-1;-9.926940203E-1
9.280937002E0;-1.146986008E0;-6.968489885E-1;-1.231780052E0
9.285729002E0;-7.096030116E-1;-1.080209017E0;-1.262438059E0
9.290521002E0;-9.709709883E-1;-9.683009982E-1;-2.060216904E0
9.295313062E0;-5.360140204E-1;-6.594390273E-1;-1.021813989E0
9.300105064E0;-1.657640040E-1;-8.854410052E-1;-1.204064965E0
9.304897064E0;5.283899978E-2;-1.190531015E0;-1.410037041E0
9.309689040E0;1.182940006E-1;-1.428503036E0;-1.438707948E0
9.314481040E0;4.009470046E-1;-1.761724949E0;-1.582283974E0
9.319273040E0;4.244660139E-1;-1.924703002E0;-1.297219992E0
9.324065040E0;4.272859991E-1;-2.121071100E0;-1.103042006E0
9.328857040E0;7.786800265E-1;-2.334083080E0;-1.531252027E0
9.333649269E0;1.438168049E0;-2.560906887E0;-1.202875972E0
9.338441271E0;4.140320122E-1;-2.142558098E0;-1.915781021E0
9.343233271E0;4.798130095E-1;-2.275434017E0;-2.154972076E0
9.348025271E0;7.921149731E-1;-2.400985956E0;-2.418678045E0
9.352817271E0;1.112615943E0;-2.413383007E0;-2.283271074E0
9.357609271E0;1.486287951E0;-2.446429014E0;-2.249217033E0
9.362401266E0;1.484940052E0;-2.258044958E0;-2.647001028E0
9.367193266E0;1.554240942E0;-2.097232103E0;-5.002449989E0
9.371985341E0;2.143793106E0;-2.616470098E0;-4.366399765E0
9.376777343E0;2.484330893E0;-3.009665012E0;-4.098252773E0
9.381569343E0;1.314619929E-1;1.189260036E-1;-3.040404081E0
9.386361343E0;1.541831970E0;-5.504760146E-1;-6.276839972E-1
9.391153343E0;5.901150107E-1;-7.406110168E-1;-3.085649967E0
9.395945343E0;4.380280077E-1;-8.537299931E-2;-1.445124030E0
9.400737348E0;8.124589920E-1;-1.114560008E0;-1.690016985E0
9.405529576E0;8.631200194E-1;-1.212566972E0;-8.327569962E-1
9.410321588E0;7.166720033E-1;-7.226529717E-1;-2.816239893E-1
9.415113588E0;5.324800014E-1;-3.091520071E-1;-9.460650086E-1
9.419905588E0;9.768429995E-1;-7.767410278E-1;-5.621439815E-1
9.424697602E0;6.874300241E-1;-5.446400046E-1;-8.747329712E-1
9.429489602E0;8.814399838E-1;-5.073180199E-1;-5.935990214E-1
9.434281602E0;7.352269888E-1;-5.781000257E-1;-1.148327947E0
9.439073677E0;6.618260145E-1;-4.508950114E-1;-9.662550092E-1
9.443865679E0;3.918460011E-1;-2.626160085E-1;-5.408909917E-1
9.448657679E0;4.594779909E-1;-1.765490025E-1;-8.134580255E-1
9.453449679E0;1.047729999E-1;2.029159963E-1;-7.117949724E-1
9.458241679E0;-1.763069928E-1;4.885190129E-1;-6.889129877E-1
9.463033674E0;-4.174480140E-1;9.091780186E-1;-1.081809998E-1
9.467825674E0;-7.534030080E-1;1.526250958E0;5.756300092E-1
9.472617674E0;-8.874390125E-1;1.571393013E0;3.477100134E-1
9.477409674E0;-9.143459797E-1;1.384291053E0;4.651409984E-1
9.482201903E0;-9.301379919E-1;1.185088038E0;6.741660237E-1
9.486993920E0;-7.833030224E-1;8.799650073E-1;6.301209927E-1
9.491785920E0;-4.664469957E-1;7.152469754E-1;8.933600187E-1
9.496577920E0;-5.084509850E-1;6.117799878E-1;1.090445042E0
9.501369924E0;-5.160719752E-1;5.115129948E-1;9.270570278E-1
9.506161924E0;-3.824279904E-1;6.391699910E-1;4.943589866E-1
9.510953924E0;-3.857249916E-1;1.008725047E0;-2.366790026E-1
9.515746014E0;-4.911360145E-1;1.349344969E0;7.436410189E-1
9.520538016E0;-8.358399868E-1;1.591513038E0;1.098363042E0
9.525330016E0;-1.137017012E0;1.648396969E0;1.354130983E0
9.530122016E0;-1.430297971E0;1.701187968E0;1.339226007E0
9.534914016E0;-1.373214960E0;1.530336976E0;1.348513961E0
9.539706016E0;-1.459599018E0;1.306360006E0;1.250831962E0
9.544498016E0;-1.453135014E0;1.099202991E0;1.082672000E0
9.549290016E0;-1.275388002E0;6.177250147E-1;1.157477975E0
9.554082035E0;-1.041864038E0;4.321129918E-1;7.839850187E-1
9.558874264E0;-1.643334985E0;4.425520003E-1;4.937669933E-1
9.563666049E0;-8.962540030E-1;4.112699926E-1;5.711209774E-1
9.568458047E0;-1.542179942E0;9.482060075E-1;4.611020088E-1
9.573250278E0;-2.205904007E0;1.370671988E0;-1.602669954E-1
9.578042285E0;-1.838083982E0;2.061002016E0;-3.669669926E-1
9.582834285E0;-2.766534090E0;2.289077997E0;-5.025770068E-1
9.587626285E0;-2.071093082E0;1.981446028E0;-3.341229856E-1
9.592418280E0;-1.521885991E0;1.776471019E0;-3.859089911E-1
9.597210280E0;-2.287278891E0;1.759166956E0;-6.405609846E-1
9.602002350E0;-1.491657972E0;1.400675058E0;-5.742740035E-1
9.606794352E0;-8.577349782E-1;1.029528975E0;-1.134366989E0
9.611586352E0;-5.387660265E-1;4.076730013E-1;-1.237342000E0
9.616378352E0;-1.747030020E-1;-2.375849932E-1;-5.247949958E-1
9.621170352E0;-1.962870061E-1;-2.625179887E-1;-3.498699963E-1
9.625962352E0;8.038400114E-2;-4.947839975E-1;-1.526360065E-1
9.630754328E0;3.182060122E-1;-7.095360160E-1;1.172889993E-1
9.635546328E0;2.643690109E-1;-6.829040051E-1;-2.890209854E-1
9.640338343E0;8.018169999E-1;-1.109758019E0;8.494900167E-2
9.645130343E0;9.529039860E-1;-1.521123052E0;1.014420033E0
9.649922352E0;7.393130064E-1;-1.492766976E0;1.485721946E0
9.654714581E0;4.908030033E-1;-1.167129993E0;1.480662942E0
9.659506352E0;5.074030161E-1;-8.565909863E-1;1.303331017E0
9.664298355E0;6.632220149E-1;-5.738829970E-1;9.011520147E-1
9.669090586E0;7.419800162E-1;-4.051969945E-1;3.556309938E-1
9.673882588E0;6.366609931E-1;-2.972539961E-1;-3.978059888E-1
9.678674588E0;5.331860185E-1;-3.340710104E-1;-4.977490008E-1
9.683466588E0;2.526310086E-1;-1.570450068E-1;1.853370070E-1
9.688258588E0;-1.172550023E-1;3.629799932E-2;5.934699774E-1
9.693050574E0;-5.279269814E-1;3.485139906E-1;1.279695034E0
9.697842574E0;-6.809059978E-1;5.801770091E-1;1.312515974E0
